{
  "title": "RとINLAで拓くベイズ分布ラグ非線形モデル(bdlnm)解析：生物統計の最前線",
  "meta_description": "RとINLAを用いたベイズ分布ラグ非線形モデル(bdlnm)の解説。生物統計の専門家向けに、臨床試験データ解析における最新のベイズ統計手法、admiralとrtablesを活用した実践的なRコードを提供します。",
  "slug": "r-inla-bayesian-distributed-lag-nonlinear-model-bdlnm-biostatistics",
  "tags": [
    "R",
    "bdlnm",
    "ベイズ統計",
    "INLA",
    "生物統計"
  ],
  "faq": [
    {
      "question": "bdlnmはどのようなタイプのデータに最も適していますか？",
      "answer": "bdlnmは、時間的に繰り返し測定されたデータ（時系列データ）で、曝露とアウトカムの間に時間的な遅延効果や非線形な関係が想定される場合に特に適しています。例えば、長期的な薬物投与が徐々に効果を発揮したり、副作用が現れたりするような臨床試験データや、環境因子が健康に与える影響を評価する疫学データなどが挙げられます。"
    },
    {
      "question": "INLAとMCMCの違いは何ですか？また、どちらを選ぶべきですか？",
      "answer": "INLAは潜在ガウスモデルという特定のクラスのベイズモデルに対して、事後分布を決定論的に近似する手法で、MCMCに比べて非常に高速です。一方、MCMCはより幅広い種類のベイズモデルに適用できる汎用的なサンプリング手法ですが、計算に時間がかかります。一般的に、モデルがINLAで扱えるLGMの範疇に収まる場合はINLAを優先することで解析時間を大幅に短縮できます。モデルの複雑さや計算資源、解析の目的に応じて選択します。"
    },
    {
      "question": "bdlnmの解析結果はどのように解釈すれば良いですか？",
      "answer": "bdlnmの解析結果は、通常、曝露量とラグ時間の二次元平面上で効果を表現した「効果表面（effect surface）」として可視化されます。これにより、「ある曝露量が、何日後/何週間後に、どの程度の非線形な効果をもたらすか」という包括的な情報を得ることができます。特定の曝露量やラグ時間における効果の点推定値と信頼区間も報告され、曝露-反応関係のダイナミクスを理解するのに役立ちます。"
    },
    {
      "question": "admiralやrtablesはbdlnm解析に必須ですか？",
      "answer": "admiralやrtablesはbdlnm解析自体を直接行うわけではありませんが、臨床試験のデータハンドリングと結果報告のプロセスにおいて非常に重要なパッケージです。admiralは生のデータからADaMのような解析に適したデータセットを効率的に作成するのに役立ち、rtablesは解析結果を規制当局に提出可能な高品質なテーブルとして出力するために利用されます。これらを使用することで、解析の再現性、透明性、効率性が大幅に向上します。"
    }
  ],
  "content": "# RとINLAで拓くベイズ分布ラグ非線形モデル(bdlnm)解析：生物統計の最前線\n\n![RとINLAで拓くベイズ分布ラグ非線形モデル(bdlnm)解析：生物統計の最前線](https://images.unsplash.com/photo-1518186285589-2f7649de83e0?w=1200&h=630&fit=crop&auto=format&q=80)\n\n*Photo from [Unsplash](https://unsplash.com/)*\n\n\n## この記事でわかること\n*   `bdlnm`（ベイズ分布ラグ非線形モデル）が、時間的遅延を伴う複雑な曝露-反応関係をどのように捉えるか理解できます。\n*   `ベイズ統計`の枠組みと、高速な計算を可能にする`INLA`パッケージの活用法を習得できます。\n*   `R`の`tidyverse`、`admiral`、`rtables`パッケージを用いた臨床試験データの準備から解析、表作成までの実践的なワークフローを学べます。\n*   臨床試験における`分布ラグモデル`や`非線形モデル`の具体的な応用例と、海外の最新動向を知ることができます。\n\n## 結論から言うと\n**`ベイズ分布ラグ非線形モデル (bdlnm)`** は、曝露の時間的な遅延効果や非線形な用量反応関係を一度にモデル化できる強力な統計手法です。特に、`R`の`INLA`パッケージを用いることで、従来のMCMC（マルコフ連鎖モンテカルロ法）に比べてはるかに高速にベイズ推論が可能となり、`生物統計`の分野で複雑な臨床データ解析に新たな道を開きます。この記事では、`R`を用いた実践的なコード例とともに、この最先端の解析手法を詳しく解説します。\n\n## ベイズ分布ラグ非線形モデル (bdlnm) とは？\n\n臨床試験や疫学研究では、ある曝露（例：薬剤投与量、環境因子）がアウトカム（例：効果、副作用、疾患発症）に及ぼす影響が、すぐに現れるとは限りません。多くの場合、効果には時間的な遅れがあったり、曝露量とアウトカムの関係が単純な線形（直線的）ではなく、ある閾値を超えると急激に変化したり、プラトーに達したりする`非線形モデル`を示すことがあります。\n\n**`分布ラグモデル (DLM: Distributed Lag Model)`** は、この時間的な遅延効果をモデル化するためのフレームワークです。過去の複数の時点での曝露が現在の（または将来の）アウトカムにどのように影響するかを評価します。さらに、曝露-反応関係自体が非線形である場合、**`非線形モデル (NLM: Nonlinear Model)`** の概念を組み合わせて、**`分布ラグ非線形モデル (DLNM: Distributed Lag Nonlinear Model)`** が用いられます。これは、曝露軸とラグ（時間遅延）軸の両方に非線形性を許容する「クロスベーシス関数（cross-basis function）」を用いることで実現されます。\n\nそして、これらのDLNMを`ベイズ統計`の枠組みで推論するのが、`ベイズ分布ラグ非線形モデル (bdlnm)`です。`ベイズ統計`を用いることで、事前の知識や仮定をモデルに組み込むことができ、特にデータが少ない場合や、不確実性を定量的に評価したい場合に非常に有効です。`bdlnm`は、複雑な曝露動態と応答を統合的に解析する、まさに`生物統計`の最前線にある手法と言えるでしょう。\n\n## 統計的背景・理論\n\n`bdlnm`の基本的な考え方は、以下の回帰モデルに集約されます。\n\n$g(E[Y_t]) = \\\\alpha + \\\\sum_{i=1}^n \\\\beta_i X_{t-i} + S(Z_t) + \\\\epsilon_t$\n\nここで、$Y_t$ は時点 $t$ におけるアウトカム、$X_{t-i}$ はラグ $i$ における曝露量です。$g(\\cdot)$ はリンク関数（例：ロジスティック回帰のlogit関数、ポアソン回帰のlog関数）、$\\alpha$ は切片、$S(Z_t)$ は共変量 $Z_t$ の効果を表すスムージング関数、$\\epsilon_t$ は誤差項です。\n\n`分布ラグモデル (DLM)`では、ラグ構造を柔軟に捉えるために、ラグの時間軸に沿って重み付けされた曝露の合計として効果をモデル化します。特に、`分布ラグ非線形モデル (DLNM)`では、曝露量とラグ時間の両方に対して非線形な関数（クロスベーシス関数）を適用します。\n\nクロスベーシス関数 $CB(x, l)$ は、曝露量 $x$ の関数とラグ時間 $l$ の関数の組み合わせとして定義されます。例えば、自然スプライン基底関数やB-スプライン基底関数などが用いられます。モデルは以下のように書けます。\n\n$g(E[Y_t]) = \\\\alpha + \\\\sum_{j=1}^{p_x} \\\\sum_{k=1}^{p_l} \\\\gamma_{jk} B_x(X_t; j) B_l(l; k) + \\\\dots$\n\nここで、$B_x(\\cdot)$ は曝露軸の基底関数、$B_l(\\cdot)$ はラグ軸の基底関数、$\\gamma_{jk}$ は対応する係数です。\n\n`ベイズ統計`の枠組みでは、これらの係数 $\\gamma_{jk}$ やその他のパラメーターに対して事前分布（prior distribution）を設定します。そして、データ（尤度関数）と事前分布を組み合わせて事後分布（posterior distribution）を導出し、これを用いて推論を行います。事後分布の計算は解析的に困難な場合が多く、通常はMCMC（Markov Chain Monte Carlo）シミュレーションが用いられます。\n\nしかし、MCMCは計算コストが高いという欠点があります。ここで登場するのが、**`INLA (Integrated Nested Laplace Approximation)`** です。`INLA`は、`潜在ガウスモデル (LGM: Latent Gaussian Model)`と呼ばれる特定のクラスのベイズモデルに対して、事後分布を高精度かつ非常に高速に近似する手法です。`bdlnm`も適切な形式で定式化すればLGMとして表現できるため、`INLA`の恩恵を受けることができます。`INLA`は、臨床試験データのような大規模なデータセットに対して、効率的なベイズ解析を可能にする画期的なツールです。\n\n## SAS/Rコード実装\n\nここでは、Rを用いて、架空の臨床試験データに対する`bdlnm`の考え方と、`admiral`、`rtables`、そして`INLA`パッケージを活用した解析例をご紹介します。\n\n### 1. サンプルデータの生成と準備 (admiral / tidyverse)\n\nまず、`R`の`tidyverse`と`admiral`パッケージを使用して、臨床試験のADaM（Analysis Data Model）データセットを模倣した分析データセットを作成します。架空の薬剤Aの累積曝露量と、時間経過に伴うバイオマーカー値の関係を解析するシナリオを想定します。\n\n```R\n# 必要なパッケージのロード\nlibrary(tidyverse) # データ操作全般\nlibrary(admiral)   # 臨床試験データセット作成支援\nlibrary(dlnm)      # 分布ラグ非線形モデルの基底関数生成\nlibrary(INLA)      # 高速ベイズ推論 (INLA)\nlibrary(rtables)   # 臨床試験レポートテーブル作成\n\n# シード値の固定\nset.seed(123)\n\n# ADSL (被験者レベルデータ) の生成\nADSL <- tribble(\n  ~USUBJID, ~AGE, ~SEX, ~TRT01A, ~TRT01P,\n  \"SUBJ0001\", 45, \"F\", \"Placebo\", \"Placebo\",\n  \"SUBJ0002\", 52, \"M\", \"Drug A 10mg\", \"Drug A 10mg\",\n  \"SUBJ0003\", 60, \"F\", \"Drug A 10mg\", \"Drug A 10mg\",\n  \"SUBJ0004\", 38, \"M\", \"Drug A 20mg\", \"Drug A 20mg\",\n  \"SUBJ0005\", 65, \"F\", \"Placebo\", \"Placebo\"\n) %>%\n  mutate(STUDYID = \"CLINTR01\")\n\n# ADLB (検査値データ) の生成\n# 薬剤曝露量 (EXPOSURE) とバイオマーカー (AVAL) の関係をシミュレート\n# 累積曝露量とラグ付き効果、非線形性を考慮\n\n# 曝露量の時系列データ（累積量）\nexposure_data <- ADSL %>%\n  select(USUBJID, TRT01P) %>%\n  expand_grid(AVISITN = 0:10, ADY = seq(0, 70, by = 7)) %>%\n  mutate(EXPOSURE = case_when(\n    TRT01P == \"Placebo\" ~ 0,\n    TRT01P == \"Drug A 10mg\" ~ pmax(0, (ADY - 7) / 7) * 10, # 投与開始7日後から累積\n    TRT01P == \"Drug A 20mg\" ~ pmax(0, (ADY - 7) / 7) * 20\n  )) %>%\n  # 実際の曝露は当日ではなく、前日までの累積曝露を考慮するためにラグを設ける\n  group_by(USUBJID) %>%\n  mutate(CUMEXPOSURE = lag(EXPOSURE, default = 0)) %>%\n  ungroup() %>%\n  select(STUDYID, USUBJID, ADY, CUMEXPOSURE)\n\n# ADLBデータのシミュレーション\nADLB_raw <- exposure_data %>%\n  left_join(ADSL, by = c(\"STUDYID\", \"USUBJID\")) %>%\n  mutate(\n    # シミュレーション用の真の効果モデル\n    # 累積曝露量とラグの非線形関係を模倣\n    # 例: 曝露量が増えると効果が非線形に増加し、一定のラグ後にピークを迎える\n    true_effect = 10 + # ベースライン\n                  (CUMEXPOSURE / 100)^2 * 5 - # 非線形の曝露効果\n                  sin(ADY / 10) * 3 + # 季節変動や時間トレンド\n                  rnorm(n(), 0, 2) # ノイズ\n  ) %>%\n  mutate(AVAL = pmax(0, true_effect)) # バイオマーカー値は0以下にならない\n\n# admiralでのデータセット結合と変数導出の例\n# ADaMデータセット (ADLB) を模倣\nADLB <- ADLB_raw %>%\n  derive_vars_merged(dataset_adsl = ADSL,\n                     by_vars = exprs(STUDYID, USUBJID)) %>%\n  mutate(\n    PARAMCD = \"BIOMARK\",\n    PARAM = \"Biomarker Value\",\n    AVALU = \"unit\",\n    ANL01FL = \"Y\" # 解析対象フラグ\n  )\n\n# 必要な変数を整形して解析用データセットを作成\nADANL <- ADLB %>%\n  filter(ANL01FL == \"Y\") %>%\n  select(STUDYID, USUBJID, ADY, TRT01P, AGE, SEX, CUMEXPOSURE, AVAL) %>%\n  # INLAのためにUSUBJIDをfactorに変換\n  mutate(USUBJID_FACTOR = as.factor(USUBJID))\n\n# データの一部を表示\nhead(ADANL)\n```\n\n### 2. `dlnm`パッケージでのクロスベーシス関数の生成\n\n`bdlnm`の中核となるクロスベーシス関数を`dlnm`パッケージで作成します。ここでは、累積曝露量とそれに対するラグ（時間遅延）の両方で非線形性を考慮した基底関数を定義します。\n\n```R\n# クロスベーシス関数の定義\n# 曝露量 (CUMEXPOSURE) の変換\n# `argvar`で変数、`df`で自由度（非線形性の複雑さ）を定義。\n# `knots`で節点の位置を指定することも可能。\n# `fun`は変換関数 (例: `ns`は自然スプライン)。\ncb_exposure <- crossbasis(\n  x = ADANL$CUMEXPOSURE,\n  argvar = list(fun = \"ns\", df = 3),\n  arglag = list(fun = \"ns\", df = 3, knots = c(7, 28, 56)), # ラグの自由度と節点\n  group = ADANL$USUBJID # 個体内の時系列を考慮\n)\n\n# クロスベーシスオブジェクトの構造を確認\nclass(cb_exposure)\ndim(cb_exposure)\n\n# このcb_exposureは、線形モデルの設計行列として使用できます。\n# ベイズモデルでは、これらの基底関数に対応する係数に事前分布を与えます。\n```\n\n### 3. `INLA`を用いたベイズ分布ラグ非線形モデルの推定\n\n`INLA`パッケージは、特定の構造を持つベイズモデル（潜在ガウスモデル）に対して、効率的な推論を提供します。ここでは、`ADANL`データセットと`cb_exposure`から作成した設計行列を用いて、バイオマーカー`AVAL`を目的変数とした`bdlnm`を`INLA`で推定する例を示します。被験者ごとのランダム効果も考慮します。\n\n```R\n# INLAモデルの構築\n# モデル式は dlnm で生成されたクロスベーシス関数を固定効果として含みます。\n# random effect for USUBJID_FACTORをいれる\nformula_inla <- AVAL ~ cb_exposure + f(USUBJID_FACTOR, model = \"iid\")\n\n# INLAモデルの実行\n# familyは目的変数の分布 (例: gaussian, poisson, binomial)\n# control.predictor=list(compute=TRUE) で線形予測子を計算\n# control.compute=list(dic=TRUE, cpo=TRUE, waic=TRUE) でモデル評価指標を計算\ninla_model <- inla(\n  formula_inla,\n  family = \"gaussian\", # 連続値バイオマーカーなのでガウス分布\n  data = ADANL,\n  control.predictor = list(compute = TRUE),\n  control.compute = list(dic = TRUE, cpo = TRUE, waic = TRUE)\n)\n\n# モデルのサマリーを表示\nsummary(inla_model)\n\n# 固定効果の推定値\n# cb_exposureの各基底関数に対応する係数の事後平均と信頼区間を確認できます。\nprint(inla_model$summary.fixed)\n\n# 超パラメーター (ランダム効果の分散など) の推定値\nprint(inla_model$summary.hyper)\n\n# 曝露量とラグの組み合わせによる効果曲線をプロット（inlaオブジェクトから直接は難しいが、事後分布から再構築）\n# 以下は概念的なプロットコード。\n# 具体的なプロットは、predict.inlaやmarginalを組み合わせて行います。\n\n# 例: クロスベーシスから効果予測を再構築\n# inla_modelのfixed effectsを抽出\ncoef_cb <- inla_model$summary.fixed[grepl(\"cb_exposure\", rownames(inla_model$summary.fixed)), \"mean\"]\n\n# 予測用の曝露量とラグのグリッド\npred_exposure <- seq(min(ADANL$CUMEXPOSURE), max(ADANL$CUMEXPOSURE), length = 20)\npred_lag <- seq(min(ADANL$ADY), max(ADANL$ADY), length = 20)\n\n# クロスベーシス関数の予測行列を生成 (dlnmパッケージの機能を使用)\npred_cb <- crossbasis(\n  x = pred_exposure,\n  argvar = list(fun = \"ns\", df = 3),\n  arglag = list(fun = \"ns\", df = 3, knots = c(7, 28, 56)),\n  # groupは予測時には不要\n  group = NULL\n)\n\n# 予測行列と係数から効果を計算\n# ここでは単純に線形結合を計算。実際はリンク関数を考慮。\npred_effect_matrix <- predict(pred_cb, coef = coef_cb, type = \"response\", lag = pred_lag)\n\n# 熱マップなどで可視化 (ggplot2を使用)\n# dfに変換してプロット\nplot_data <- expand_grid(Exposure = pred_exposure, Lag = pred_lag) %>%\n  mutate(Effect = as.vector(t(pred_effect_matrix)))\n\nggplot(plot_data, aes(x = Lag, y = Exposure, fill = Effect)) +\n  geom_tile() +\n  scale_fill_viridis_c(option = \"A\") +\n  labs(\n    title = \"曝露量とラグ時間によるバイオマーカー効果\",\n    x = \"ラグ時間 (日)\",\n    y = \"累積曝露量\",\n    fill = \"効果\"\n  ) +\n  theme_minimal()\n```\n\n### 4. `rtables`での解析結果の報告\n\n最後に、`rtables`パッケージを用いて、解析データセットの要約統計量や、モデルから得られた情報を臨床試験の報告書形式で表現する例を示します。\n\n```R\n# rtablesで基本的な記述統計表を作成\n# まず、テーブルの定義\ntbl <- basic_table() %>%\n  split_cols_by(\"TRT01P\") %>%\n  analyze(vars = \"AVAL\", funs = list(mean = mean, sd = sd, n = length)) %>%\n  build_table(df = ADANL)\n\n# テーブルを表示\ntbl\n\n# モデル結果の要約をテーブルにする場合\n# INLAモデルの固定効果をデータフレームに変換\nfixed_effects_df <- inla_model$summary.fixed %>%\n  as.data.frame() %>%\n  rownames_to_column(var = \"Parameter\") %>%\n  mutate(across(where(is.numeric), ~ round(., 3))) # 数値を丸める\n\n# RtablesでINLAの結果表を作成 (例: 固定効果)\n# この部分はrtablesが直接INLAオブジェクトを扱うわけではないので、\n# データフレームに整形してから`rtables`で整形します。\n\n# 例: fixed_effects_dfから一部を抜粋して表示\ntbl_inla_fixed <- basic_table() %>%\n  split_cols_by(\"Parameter\") %>%\n  # ここでは簡略化のため、meanとsdのみ表示\n  # 実際には、CIやp-valueに相当するものを計算して表示します\n  analyze_colvars(vars = c(\"mean\", \"sd\")) %>%\n  build_table(fixed_effects_df)\n\ntbl_inla_fixed # これはまだ固定効果の各行を列として扱うため、調整が必要。\n\n# より適切なinla結果表示の例\ntbl_inla_params <- basic_table() %>%\n  split_cols_by_var(\"var\") %>%\n  add_col_expression(Parameter = \"Parameter\") %>%\n  add_col_expression(Mean = \"mean\") %>%\n  add_col_expression(SD = \"sd\") %>%\n  add_col_expression(Lower_CI = \"0.025quant\") %>%\n  add_col_expression(Upper_CI = \"0.975quant\") %>%\n  build_table(fixed_effects_df)\n\n# これはまだ完璧ではないが、fixed_effects_dfを整形してrtablesで出力する考え方を示す。\n# より高度な整形は、`rtables`の`row_fun`や`value_fun`を駆使します。\n# {{internal_link:Rtablesを用いた臨床試験報告書作成}}に関する記事も参照してください。\n```\n\n## 実務での活用場面\n\n`bdlnm`は、特に時間的な要素と非線形な関係性が重要な臨床研究において、多岐にわたる場面で活用できます。\n\n1.  **薬物動態/薬力学 (PK/PD) モデリング**: 薬剤の投与量と血中濃度、そして効果発現までの遅延や、飽和・閾値効果といった非線形な関係を詳細に解析できます。特に、反復投与による累積曝露が長期的なアウトカムに与える影響の評価に有用です。\n2.  **毒性評価**: 特定の曝露（例：高用量薬剤、環境毒素）が、時間的ラグを伴いながら非線形に毒性マーカーや副作用の発現リスクに影響するパターンを特定します。これにより、安全域や最大耐用量（MTD）の決定に役立ちます。\n3.  **バイオマーカー研究**: 病気の進行や治療効果を予測するバイオマーカーの動態が、過去の臨床イベントや薬剤曝露にどのように反応し、その関係が非線形であるかを解明します。\n4.  **リアルワールドデータ (RWD) 解析**: 医療費データや電子カルテデータを用いて、特定の介入（例：治療法の変更）が長期的な患者アウトカムに与える影響を、交絡因子や時間的変動を考慮して評価します。\n5.  **疫学研究**: 大気汚染物質や気候変動因子といった環境曝露が、感染症発生率や慢性疾患の増悪に時間的遅延を伴って非線形に影響するメカニズムを解明します。\n\nこれらの活用場面において、`bdlnm`は単なる相関関係ではなく、より深い因果関係に近い時間的・非線形な曝露-反応関係を明らかにすることで、臨床的意義のある知見を提供します。\n\n## 海外の最新動向\n\n近年の国際会議（PSI Symposium, ASA Biopharmaceutical Section Workshop, PHUSE US Connectなど）では、`ベイズ統計`手法の臨床開発への応用拡大が活発に議論されています。特に、複雑な疾患メカニズムやデータ構造を持つ新薬開発において、`bdlnm`のような高度なモデルの利用が増えています。\n\n*   **計算効率の向上**: `INLA`のような高速アルゴリズムの登場は、MCMCが抱える計算時間の課題を克服し、ベイズモデリングをより実用的なものにしました。これにより、複雑なモデルでも迅速な探索的解析や感度分析が可能になっています。\n*   **ソフトウェアツールの進化**: `R`における`dlnm`パッケージに加え、`INLA`や`stan`といったベイズ推論エンジンが進化し、ユーザーフレンドリーなインターフェースや強力な診断ツールが提供されています。これにより、生物統計家はより簡単に高度なモデルを構築・評価できるようになっています。\n*   **規制当局の視点**: FDA（米国食品医薬品局）やEMA（欧州医薬品庁）などの規制当局も、ベイズ統計手法のメリットを認識しており、特定の状況下での使用を推奨しています。特に、希少疾患や小児試験などデータが限られるケースでのベイズ統計の活用ガイドラインが整備されつつあります。`bdlnm`は、これらの状況下で曝露-反応関係をよりロバストに推定するための有力な候補となります。{{internal_link:ベイズ統計を用いた希少疾患臨床試験デザイン}}に関する詳細はこちらをご覧ください。\n\n参照：\n*   FDA Guidance for Industry: \"Guidance for the Use of Bayesian Statistics in Medical Device Clinical Trials\" (2010) - 医薬品にも一般化できる考え方。\n*   PHUSE Blog: \"Bayesian Methods in Clinical Trials\" (頻繁に議論が掲載されます。PHUSEのウェブサイトを定期的にチェックすることをお勧めします。)\n*   PSI Working Group on Bayesian Statistics: [https://www.psiweb.org/](https://www.psiweb.org/)\n\n## よくある質問（FAQ）\n\n**Q1: `bdlnm`はどのようなタイプのデータに最も適していますか？**\nA1: `bdlnm`は、時間的に繰り返し測定されたデータ（時系列データ）で、曝露とアウトカムの間に時間的な遅延効果や非線形な関係が想定される場合に特に適しています。例えば、長期的な薬物投与が徐々に効果を発揮したり、副作用が現れたりするような臨床試験データや、環境因子が健康に与える影響を評価する疫学データなどが挙げられます。\n\n**Q2: `INLA`とMCMCの違いは何ですか？また、どちらを選ぶべきですか？**\nA2: `INLA`は潜在ガウスモデルという特定のクラスのベイズモデルに対して、事後分布を決定論的に近似する手法で、MCMCに比べて非常に高速です。一方、MCMCはより幅広い種類のベイズモデルに適用できる汎用的なサンプリング手法ですが、計算に時間がかかります。一般的に、モデルが`INLA`で扱えるLGMの範疇に収まる場合は`INLA`を優先することで解析時間を大幅に短縮できます。モデルの複雑さや計算資源、解析の目的に応じて選択します。\n\n**Q3: `bdlnm`の解析結果はどのように解釈すれば良いですか？**\nA3: `bdlnm`の解析結果は、通常、曝露量とラグ時間の二次元平面上で効果を表現した「効果表面（effect surface）」として可視化されます。これにより、「ある曝露量が、何日後/何週間後に、どの程度の非線形な効果をもたらすか」という包括的な情報を得ることができます。特定の曝露量やラグ時間における効果の点推定値と信頼区間も報告され、曝露-反応関係のダイナミクスを理解するのに役立ちます。\n\n**Q4: `admiral`や`rtables`は`bdlnm`解析に必須ですか？**\nA4: `admiral`や`rtables`は`bdlnm`解析自体を直接行うわけではありませんが、臨床試験のデータハンドリングと結果報告のプロセスにおいて非常に重要なパッケージです。`admiral`は生のデータからADaMのような解析に適したデータセットを効率的に作成するのに役立ち、`rtables`は解析結果を規制当局に提出可能な高品質なテーブルとして出力するために利用されます。これらを使用することで、解析の再現性、透明性、効率性が大幅に向上します。{{internal_link:admiral Rパッケージ入門}}の記事で詳しく解説しています。\n\n## 臨床統計スキルを磨くためのリソース\n\nこの記事の内容をさらに深めるために、以下のリソースが役立ちます。\n\n- **[Amazon 統計学書籍](https://www.amazon.co.jp?tag=musclelove07-22)** - 臨床統計・生物統計の参考書\n- **[Udemy SAS/R講座](https://www.udemy.com)** - 動画で学ぶSAS/R統計プログラミング\n- **[楽天 統計書籍](https://www.rakuten.co.jp)** - 統計学・データサイエンスの参考書\n\n*上記リンクからご利用いただくと、サイト運営の支援になります。*\n\n\n## まとめ\n\n本記事では、`R`を用いた`ベイズ分布ラグ非線形モデル (bdlnm)`の解析について、その理論的背景から実践的なコード例までを解説しました。`bdlnm`は、時間的な遅延と非線形性を同時に捉えることで、複雑な曝露-反応関係をより現実的にモデリングできる強力な手法です。さらに、`INLA`パッケージの活用は、`ベイズ統計`解析の計算効率を劇的に向上させ、大規模な臨床試験データにおける高度な統計モデリングを現実的なものにしています。`admiral`や`rtables`のような`R`パッケージを組み合わせることで、データの準備から解析、そして報告までの一連のワークフローを効率的に実現できます。\n\n`生物統計`の専門家として、私たちは常に最新の統計手法を取り入れ、臨床試験の価値を最大化する責任があります。`bdlnm`と`INLA`の組み合わせは、この使命を果たすための強力なツールとなるでしょう。今後の臨床開発において、これらの進歩がさらに多くの画期的な知見をもたらすことを期待しています。\n\n---",
  "hero_emoji": "📝",
  "hero_gradient": "135deg",
  "keyword": "R, bdlnm, ベイズ統計, 分布ラグモデル, 非線形モデル, INLA, 生物統計",
  "category": "R for Clinical Trials",
  "generated_at": "2026-04-21T05:24:03.918111",
  "has_affiliate": true,
  "affiliate_count": 3,
  "eyecatch_url": "https://images.unsplash.com/photo-1518186285589-2f7649de83e0?w=1200&h=630&fit=crop&auto=format&q=80",
  "eyecatch_credit": "Photo from [Unsplash](https://unsplash.com/)"
}