{
  "title": "admiralとRで臨床試験を加速！ADaM自動生成とAI活用の新時代",
  "content": "# admiralとRで臨床試験を加速！ADaM自動生成とAI活用の新時代\n\n![admiralとRで臨床試験を加速！ADaM自動生成とAI活用の新時代](https://images.unsplash.com/photo-1504868584819-f8e8b4b6d7e3?w=1200&h=630&fit=crop&auto=format&q=80)\n\n*Photo from [Unsplash](https://unsplash.com/)*\n\n\n## この記事でわかること\n*   `admiral` Rパッケージの基本的な機能とADaM（Analysis Data Model）作成における役割\n*   臨床試験データ（SDTM）からADaMデータセットを効率的に自動生成するRプログラミング手法\n*   R言語の`tidyverse`エコシステムを活用した、読みやすく保守しやすいコードの書き方\n*   AIアシスタントが臨床統計プログラミング、特にADaM作成をどう支援できるか\n*   海外の最新動向とオープンソースRを活用した臨床試験データ解析の未来\n\n## 結論から言うと\n製薬企業やCRO（Contract Research Organization）における臨床試験では、CDISC（Clinical Data Interchange Standards Consortium）標準に準拠したADaMデータセットの作成が不可欠です。`admiral` Rパッケージは、この複雑なADaM作成プロセスを劇的に効率化し、高品質な分析データセットを自動生成するための強力なツールとなります。RとAIアシスタントを組み合わせることで、プログラミングの生産性は飛躍的に向上し、より早く、より正確な臨床試験結果の導出が可能になるでしょう。\n\n## admiralとは？Rパッケージが臨床試験を変革する\n\n`admiral`は、R言語で開発されたオープンソースパッケージであり、臨床試験データのSDTM（Study Data Tabulation Model）からADaMデータセットを作成するために設計されました。臨床統計担当者やSASプログラマーがADaMデータセットを作成する際の手作業を減らし、標準化された一貫性のあるプロセスを提供することを目的としています。\n\n**なぜ`admiral`が必要なのでしょうか？**\n\nこれまでの臨床試験データ解析では、SAS（Statistical Analysis System）が主要なプログラミング言語として広く利用されてきました。しかし、近年、R言語が持つ柔軟性、豊富な統計解析機能、そして活発なコミュニティによるオープンソース開発が注目されています。特に、CDISC標準という厳格な要件の中でADaMデータセットを作成する作業は、非常に複雑で時間がかかるとともに、高い精度が求められます。`admiral`は、この課題を解決するために以下のような機能を提供します。\n\n*   **SDTM-ADaMマッピングの自動化**: SDTMデータセットから、ADaMに必要な変数（例えば、`AVAL` (Analysis Value)や`AVALC` (Analysis Value Character)、`CHG` (Change From Baseline)など）を自動で派生・生成する関数を提供します。\n*   **CDISC ADaM IG（Implementation Guide）への準拠**: ADaMデータセットの構造や命名規則、変数定義などが、CDISCのガイドラインに沿って設計されています。\n*   **`tidyverse`との統合**: `dplyr`や`tidyr`といったRの強力なデータ操作パッケージ（`tidyverse`エコシステム）とシームレスに連携し、直感的で効率的なプログラミングを可能にします。\n*   **検証可能性と再現性**: オープンソースであるため、コードの透明性が高く、再現可能な分析パイプラインを構築しやすいという利点があります。\n\n`admiral`は、単なるプログラミングツールに留まらず、臨床試験データ解析の品質と効率を向上させるためのエコシステムの一部として機能します。{{internal_link:CDISCとは？基本を理解する}}\n\n## 統計的背景・理論：ADaMデータセットの重要性\n\n臨床試験におけるデータ解析は、まずCDISC標準のSDTMデータセットから始まります。SDTMは、患者レベルの生データや試験実施データを標準化された形で格納したものですが、そのままでは統計解析に直接用いることは困難です。そこで、統計解析の目的（例えば、有効性や安全性）に応じて変数を整理し、解析に適した形に加工したものがADaMデータセットです。\n\n**ADaMの主な目的と構造**\n\nADaMデータセットの主な目的は、統計解析計画書（SAP: Statistical Analysis Plan）に記載された解析を効率的かつ正確に実施できるようにすることです。\n\nADaMデータセットは、一般的に以下のような主要なデータセットで構成されます。\n\n*   **ADSL (Subject-Level Analysis Dataset)**: 被験者ごとの基本的な情報（性別、年齢、人種など）、ランダム化情報、投与情報、解析対象集団の定義などが含まれます。すべてのADaMデータセットの基礎となるデータセットです。\n*   **ADEX (Exposure Analysis Dataset)**: 薬剤の曝露期間や総曝露量など、薬剤投与に関する詳細な情報が含まれます。\n*   **ADLB (Laboratory Analysis Dataset)**: 臨床検査値データ（例えば、基準値からの変化量など）が解析に適した形式で格納されます。\n\nこれらのADaMデータセットを作成する過程で、最も重要な作業の一つが「**派生変数（Derived Variables）の生成**」です。これは、SDTMデータセットの既存の変数から、統計解析に必要な新たな変数を計算して生成するプロセスを指します。例えば、以下のような派生変数がよく用いられます。\n\n*   **ベースライン値 (BASE)**: 治療開始前の測定値。\n*   **ベースラインからの変化量 (CHG)**: $CHG = AVAL - BASE$\n*   **百分率変化率 (PCHG)**: $PCHG = (AVAL - BASE) / BASE \\times 100$\n*   **投与期間 (DUR)**: 最終投与日 - 最初投与日 + 1\n\n`admiral`は、これらの派生変数を生成するための標準化された関数を提供し、プログラミングミスを減らし、一貫性のあるデータセット作成を支援します。この標準化されたアプローチは、異なる試験や異なる担当者間で一貫性を保つ上で極めて重要です。\n\n## SAS/Rコード実装：admiralでADaMを自動生成する\n\nここでは、`admiral`を用いたADaMデータセット（ADSL）作成の具体的なRコード例と、比較のためのSASコードを提示します。臨床試験データ解析におけるRとSASの役割を理解する上で参考になるでしょう。\n\n### RコードによるADaM（ADSL）作成（admiral活用）\n\nまず、`admiral`パッケージと`tidyverse`をロードし、ADaM作成の元となるサンプルSDTMライクなデータ（被験者データ`dm`、施設情報`ds`）を生成します。\n\n```R\n# 必要なパッケージの読み込み\nlibrary(admiral)\nlibrary(dplyr)\nlibrary(lubridate)\n\n# サンプルSDTMライクなデータ生成\n# DM (Demographics) データセットのシミュレーション\ndm <- tibble::tribble(\n  ~STUDYID, ~USUBJID, ~SUBJID, ~RFSTDTC,     ~RFENDTC,     ~SEX,  ~AGE, ~RACE,    ~ARMCD,    ~ARM,          ~ACTARMCD,   ~ACTARM,\n  \"ABC001\", \"ABC001-001\", \"001\", \"2023-01-01\", \"2023-03-15\", \"F\",   45, \"WHITE\",  \"TRT A\",     \"Treatment A\", \"TRT A\",     \"Treatment A\",\n  \"ABC001\", \"ABC001-002\", \"002\", \"2023-01-05\", \"2023-03-20\", \"M\",   52, \"ASIAN\",  \"TRT B\",     \"Treatment B\", \"TRT B\",     \"Treatment B\",\n  \"ABC001\", \"ABC001-003\", \"003\", \"2023-01-10\", \"2023-03-25\", \"F\",   38, \"BLACK\",  \"PLACEBO\",   \"Placebo\",     \"PLACEBO\",   \"Placebo\",\n  \"ABC001\", \"ABC001-004\", \"004\", \"2023-01-12\", \"2023-03-30\", \"M\",   60, \"WHITE\",  \"TRT A\",     \"Treatment A\", \"TRT A\",     \"Treatment A\",\n  \"ABC001\", \"ABC001-005\", \"005\", \"2023-01-15\", \"2023-03-01\", \"F\",   29, \"ASIAN\",  \"TRT B\",     \"Treatment B\", \"TRT B\",     \"Treatment B\"\n) %>%\n  # 日付変数を日付型に変換\n  mutate(RFSTDTC = ymd(RFSTDTC), RFENDTC = ymd(RFENDTC))\n\n# DS (Disposition) データセットのシミュレーション\nds <- tibble::tribble(\n  ~STUDYID, ~USUBJID, ~DSSEQ, ~DSCAT,        ~DSDECOD,              ~DSDTC,\n  \"ABC001\", \"ABC001-001\", 1,      \"DISPOSITION\", \"COMPLETED\",           \"2023-03-15\",\n  \"ABC001\", \"ABC001-002\", 1,      \"DISPOSITION\", \"COMPLETED\",           \"2023-03-20\",\n  \"ABC001\", \"ABC001-003\", 1,      \"DISPOSITION\", \"WITHDRAWAL BY SUBJECT\", \"2023-03-25\",\n  \"ABC001\", \"ABC001-004\", 1,      \"DISPOSITION\", \"COMPLETED\",           \"2023-03-30\",\n  \"ABC001\", \"ABC001-005\", 1,      \"DISPOSITION\", \"ADVERSE EVENT\",       \"2023-03-01\"\n) %>%\n  mutate(DSDTC = ymd(DSDTC))\n\n# ADaM ADSL データセットの作成\n# まず、dmデータセットをベースにderive_vars_adsl()でADSLの骨格を作成\nadsl <- dm %>%\n  derive_vars_adsl(\n    dataset_ds = ds, \n    filter_ds = DSDECOD %in% c(\"COMPLETED\", \"WITHDRAWAL BY SUBJECT\", \"ADVERSE EVENT\"),\n    # 研究開始日と終了日を定義（架空）\n    study_start_date = ymd(\"2023-01-01\"),\n    study_end_date = ymd(\"2023-03-31\"),\n    # 主要な日付変数の派生\n    date_var = RFSTDTC,\n    new_vars = vars(\n      DTHFL = \"N\", # 死亡フラグ\n      SITEID = \"SITE001\", # 施設ID（サンプルなので固定）\n      TRT01A = ARM, # 実治療群\n      TRT01P = ARM # 計画治療群\n    )\n  ) %>%\n  # 年齢グループ変数の派生\n  mutate(\n    AGEGR1 = case_when(\n      AGE < 40 ~ \"<40\",\n      AGE >= 40 & AGE < 50 ~ \"40-49\",\n      AGE >= 50 & AGE < 60 ~ \"50-59\",\n      TRUE ~ \"60+\"\n    )\n  )\n\n# 作成されたADSLを表示（一部）\nhead(adsl)\n```\n\n上記のコードでは、`admiral`パッケージの`derive_vars_adsl()`関数を使って、SDTMデータセット（`dm`と`ds`）からADSLの骨格を作成しています。その後、`dplyr::mutate()`関数を使って、年齢グループ（`AGEGR1`）のような派生変数を追加しています。\n\n`admiral`には、他にも以下のようなADaM作成をサポートする関数群があります。\n\n*   `derive_param_exposure()`: 曝露期間や総投与量などの派生\n*   `derive_vars_merged()`: 複数のSDTMデータセットから必要な変数を結合\n*   `derive_baseline_records()`: ベースラインレコードの識別と生成\n*   `derive_extreme_event()`: 最大値・最小値などの極値イベントの派生\n\nこれらの関数は、CDISCのベストプラクティスに沿って設計されており、複雑なADaM作成ロジックを簡潔かつ標準化された形で記述することを可能にします。\n\n### SASコードによるADSL作成（比較）\n\n同じようなADSL作成プロセスをSASで実装すると以下のようになります。SASでは`DATA`ステップや`PROC SQL`を駆使してデータ操作を行います。\n\n```SAS\n/* サンプルSDTMライクなデータ生成 (DM) */\ndata dm;\n  length STUDYID USUBJID SUBJID $10. RFSTDTC RFENDTC $10. SEX $1. AGE 8. RACE $10. ARMCD ARM ACTARMCD ACTARM $20.;\n  input STUDYID USUBJID SUBJID RFSTDTC $ RFENDTC $ SEX AGE RACE $ ARMCD $ ARM $ ACTARMCD $ ACTARM $;\n  informat RFSTDTC RFENDTC yymmdd10.;\n  format RFSTDTC RFENDTC yymmdd10.;\n  cards;\nABC001 ABC001-001 001 2023-01-01 2023-03-15 F 45 WHITE TRT A Treatment A TRT A Treatment A\nABC001 ABC001-002 002 2023-01-05 2023-03-20 M 52 ASIAN TRT B Treatment B TRT B Treatment B\nABC001 ABC001-003 003 2023-01-10 2023-03-25 F 38 BLACK PLACEBO Placebo PLACEBO Placebo\nABC001 ABC001-004 004 2023-01-12 2023-03-30 M 60 WHITE TRT A Treatment A TRT A Treatment A\nABC001 ABC001-005 005 2023-01-15 2023-03-01 F 29 ASIAN TRT B Treatment B TRT B Treatment B\n;\nrun;\n\n/* サンプルSDTMライクなデータ生成 (DS) */\ndata ds;\n  length STUDYID USUBJID DSCAT DSDECOD $30. DSDTC $10.;\n  input STUDYID USUBJID DSSEQ DSCAT $ DSDECOD $ DSDTC $;\n  informat DSDTC yymmdd10.;\n  format DSDTC yymmdd10.;\n  cards;\nABC001 ABC001-001 1 DISPOSITION COMPLETED 2023-03-15\nABC001 ABC001-002 1 DISPOSITION COMPLETED 2023-03-20\nABC001 ABC001-003 1 DISPOSITION WITHDRAWAL BY SUBJECT 2023-03-25\nABC001 ABC001-004 1 DISPOSITION COMPLETED 2023-03-30\nABC001 ABC001-005 1 DISPOSITION ADVERSE EVENT 2023-03-01\n;\nrun;\n\n/* ADaM ADSL データセットの作成 */\ndata adsl;\n  merge dm (in=a) ds (in=b where=(DSDECOD in ('COMPLETED', 'WITHDRAWAL BY SUBJECT', 'ADVERSE EVENT')));\n  by STUDYID USUBJID;\n  if a;\n\n  /* 派生変数の定義 */\n  DTHFL = 'N'; /* 死亡フラグ */\n  SITEID = 'SITE001'; /* 施設ID（サンプルなので固定） */\n  TRT01A = ARM; /* 実治療群 */\n  TRT01P = ARM; /* 計画治療群 */\n\n  /* 年齢グループの派生 */\n  if AGE < 40 then AGEGR1 = '<40';\n  else if AGE >= 40 and AGE < 50 then AGEGR1 = '40-49';\n  else if AGE >= 50 and AGE < 60 then AGEGR1 = '50-59';\n  else AGEGR1 = '60+';\n\n  label DTHFL = \"Death Flag\"\n        SITEID = \"Site Identifier\"\n        TRT01A = \"Actual Treatment Arm\"\n        TRT01P = \"Planned Treatment Arm\"\n        AGEGR1 = \"Age Group 1\";\n\n  keep STUDYID USUBJID SUBJID RFSTDTC RFENDTC SEX AGE RACE ARMCD ARM ACTARMCD ACTARM DTHFL SITEID TRT01A TRT01P AGEGR1;\nrun;\n\n/* 作成されたADSLを表示（一部） */\nproc print data=adsl (obs=5);\n  title 'ADSL Dataset (SAS)';\nrun;\n```\n\nSASコードも同様のロジックでADSLを作成しますが、データのマージ（`merge`ステートメント）や条件分岐（`if-then-else`）を直接記述する必要があります。`admiral`のような特化した関数がないため、CDISC標準に準拠した変数命名やロジックの実装はプログラマーの知識と経験に大きく依存します。\n\n**R (`admiral`) とSASの比較**\n\n| 特徴       | R (`admiral`)                                   | SAS                                                    |\n| :--------- | :---------------------------------------------- | :----------------------------------------------------- |\n| コードの記述性 | `tidyverse`と連携し、より直感的・簡潔         | `DATA`ステップや`PROC`で記述、冗長になる場合も         |\n| CDISC準拠  | 専用関数でADaM IGに準拠しやすい                 | プログラマーの知識と経験に依存                       |\n| コミュニティ | 活発なオープンソースコミュニティ、迅速な改善      | 大規模企業向けサポート、安定性                       |\n| 費用       | オープンソース（無料）                          | 商用ライセンス（高価）                               |\n| AI連携     | PythonなどのAI/MLライブラリとの連携が容易       | 一部AI機能はあるが、オープンソース連携は限定的     |\n| 習得難易度 | 初心者は`tidyverse`の概念理解から              | 既存プログラマーは習得しやすいが、Rとは異なる思考 |\n\n## 実務での活用場面：製薬・CROでのADaM作成とAIアシスタント\n\n`admiral`は、臨床試験の実務において多岐にわたる場面でその真価を発揮します。\n\n1.  **ADaMデータセットの効率的な作成とバリデーション**: SASプログラミングに慣れた担当者でも、ADaM作成の複雑さに頭を悩ませることは少なくありません。`admiral`は、標準的な手順を関数として提供するため、プログラミング時間の短縮とエラーの削減に貢献します。さらに、`rtables`や`Tplyr`といったRパッケージと組み合わせることで、テーブル、リスト、フィギュア（TLF: Tables, Listings, and Figures）の作成まで一貫したワークフローをRで構築できます。\n\n2.  **品質管理と再現性の向上**: `admiral`で書かれたコードは、`tidyverse`スタイルで統一感があり、読みやすくレビューしやすいのが特徴です。これにより、コードレビューの効率が向上し、異なるプログラマー間での一貫性が保たれます。また、全ての処理がRスクリプトで完結するため、解析の再現性が保証されます。\n\n3.  **AIアシスタントとの連携による生産性向上**: ChatGPTのようなLLM（大規模言語モデル）ベースのAIアシスタントは、`admiral`のコード生成やレビューに非常に有効です。例えば、以下のような活用が考えられます。\n    *   **コード生成**: 「SDTMのDMデータからADaMのADSLを作成する`admiral`コードを生成して」といった指示で、基本的なコードの骨格を自動生成できます。\n    *   **デバッグとエラー解決**: エラーメッセージをAIに提示し、解決策や修正案を提案させることができます。\n    *   **コードレビューと改善提案**: 作成した`admiral`コードをAIにレビューさせ、より効率的な書き方やベストプラクティスに沿った修正を提案させることが可能です。\n    *   **ドキュメント生成**: コードから自動的にコメントやドキュメントを生成し、CDISCに準拠した仕様書作成を支援します。\n\nAIアシスタントは、特に`admiral`のような特定のドメイン知識を要するパッケージにおいても、プログラマーの生産性を劇的に高める潜在力を持っています。これにより、プログラマーはより戦略的なタスクや複雑な統計学的課題に集中できるようになります。\n\n4.  **トレーニングと人材育成**: Rと`admiral`の学習リソースは豊富であり、新たな臨床統計プログラマーの育成にも役立ちます。AIアシスタントも学習プロセスを加速させるツールとして活用できます。{{internal_link:SASからRへの移行ガイド}}\n\n## 海外の最新動向：オープンソースRの台頭とPharmaverse\n\n近年、臨床試験分野におけるR言語の採用が世界的に加速しています。かつてはSAS一強の時代でしたが、現在では規制当局（FDA: 米国食品医薬品局など）もRで作成された申請資料を受け入れる体制を整えつつあります。この動きを牽引しているのが、PHUSE（Pharmaceutical Industry Health Data User Community）やPSI（Statisticians in the Pharmaceutical Industry）、ASA Biopharmaceutical Sectionといった国際的なコミュニティです。\n\n特に注目すべきは、「**Pharmaverse（ファーマバース）**」イニシアティブです。これは、臨床試験のデータサイエンスと統計解析に特化したRパッケージ群（`admiral`, `rtables`, `Tplyr`, `tern`など）を開発・維持・標準化することを目指すオープンソースプロジェクトの総称です。これらのパッケージは、CDISC標準への準拠、規制要件への対応、そして高品質な解析結果の生成を目標に、共同で開発が進められています。\n\n*   **`rtables`**: テーブル作成に特化したパッケージで、複雑な統計表をプログラム的に生成できます。\n*   **`Tplyr`**: TLF（Tables, Listings, and Figures）作成を効率化するためのパッケージで、特にListingの生成に強みがあります。\n*   **`tern`**: グラフ作成や統計的要約に特化したパッケージです。\n\nこれらのパッケージが連携することで、SDTMからADaM、そして最終的なTLFまで、Rで完結する一貫した解析パイプラインを構築することが可能になります。これにより、SASへの依存度を減らし、開発コストの削減、イノベーションの加速、そしてグローバルな協力体制の強化が期待されています。\n\n海外の主要なカンファレンス（PHUSE US/EU Connect, ASA Biopharmaceutical Section Workshopなど）では、`admiral`やPharmaverseに関する発表が数多く行われており、その進化と普及は今後も加速していくと予想されます。\n\n**参考資料**\n*   CDISC公式ウェブサイト: [https://www.cdisc.org/](https://www.cdisc.org/)\n*   PHUSE公式ウェブサイト: [https://www.phuse.eu/](https://www.phuse.eu/)\n*   Pharmaverse公式ウェブサイト: [https://pharmaverse.org/](https://pharmaverse.org/)\n\n## よくある質問（FAQ）\n\n### Q1: admiralはSASを完全に置き換えるものですか？\n必ずしも完全に置き換えるものではありませんが、ADaM作成においては非常に強力な代替手段となり得ます。多くの製薬企業やCROでは、規制当局への申請時にSASコードやログが求められる場合があるため、SASとRを併用するハイブリッドなアプローチが一般的です。しかし、探索的解析や社内レポート作成などではRの活用が広がっています。長期的に見れば、Rの採用範囲は拡大していくでしょう。\n\n### Q2: admiralを使う最大のメリットは何ですか？\n最大のメリットは、ADaMデータセットの作成を標準化し、効率化できる点です。CDISC ADaM IG（Implementation Guide）に準拠した関数が提供されるため、プログラミングミスを減らし、コードのレビューを容易にします。また、`tidyverse`との高い親和性により、直感的で読みやすいコードを記述できます。\n\n### Q3: admiralは日本のPMDA申請にも使えますか？\n現在のPMDA（医薬品医療機器総合機構）の技術的要件では、SASに加え、Rも申請資料に利用できることが明記されています。ただし、Rで作成した資料を提出する際には、Rのバージョン管理や使用したパッケージ、計算結果の再現性などについて十分な説明が求められます。`admiral`を含むPharmaverseのパッケージ群は、その透明性とバリデーションにより、将来的にPMDA申請での活用がさらに進むと期待されています。\n\n### Q4: RとAIアシスタントを組み合わせる具体的な方法は？\nAIアシスタント、例えばChatGPTのような大規模言語モデルは、`admiral`のコード生成、デバッグ、ドキュメンテーション作成、コードレビュー支援に活用できます。具体的には、「SDTMのラボデータからADaMのADLBを作成する`admiral`のコード例を生成して」といったプロンプトでコードの骨格を得たり、エラーメッセージをAIに解析させて解決策を提案してもらったりすることが可能です。これにより、プログラミング学習の加速や開発時間の短縮が期待できます。\n\n### Q5: admiral以外に知っておくべき臨床試験用Rパッケージはありますか？\nはい、たくさんあります。特に`Pharmaverse`イニシアティブで開発されているパッケージ群が重要です。具体的には、テーブル生成のための`rtables`、TLF作成を効率化する`Tplyr`、グラフ作成や統計的要約のための`tern`などが挙げられます。これらのパッケージは`admiral`と連携し、Rで臨床試験データ解析の全工程をカバーするための強力なツールとなります。\n\n## 臨床統計スキルを磨くためのリソース\n\nこの記事の内容をさらに深めるために、以下のリソースが役立ちます。\n\n- **[Amazon 統計学書籍](https://www.amazon.co.jp?tag=musclelove07-22)** - 臨床統計・生物統計の参考書\n- **[Udemy SAS/R講座](https://www.udemy.com)** - 動画で学ぶSAS/R統計プログラミング\n- **[楽天 統計書籍](https://www.rakuten.co.jp)** - 統計学・データサイエンスの参考書\n\n*上記リンクからご利用いただくと、サイト運営の支援になります。*\n\n\n## まとめ\n\n本記事では、Rの`admiral`パッケージが臨床試験におけるADaMデータセット作成をどのように変革するかについて解説しました。`admiral`は、CDISC標準への準拠をサポートし、`tidyverse`との統合により効率的かつ高品質なプログラミングを可能にします。さらに、AIアシスタントとの連携は、プログラマーの生産性を飛躍的に向上させ、臨床統計プログラミングの未来を形作る重要な要素となるでしょう。\n\nオープンソースRの進化と`Pharmaverse`のようなコミュニティの活動は、臨床試験のデータ解析をより透明性高く、再現性のあるものへと導いています。SASプログラマーの方も、ぜひこの機会にRと`admiral`の世界に触れ、新たな可能性を探ってみてはいかがでしょうか。臨床統計ラボは、皆様のスキルアップを全力でサポートいたします。",
  "meta_description": "admiral Rパッケージの基本からADaMデータセットの自動生成、臨床試験での活用法を解説。RとAIで統計解析の効率化を図る最新プログラミング戦略を紹介します。",
  "tags": [
    "admiral",
    "Rパッケージ",
    "臨床試験",
    "ADaM",
    "プログラミング"
  ],
  "slug": "admiral-r-clinical-trials-adam-ai",
  "faq": [
    {
      "question": "admiralはSASを完全に置き換えるものですか？",
      "answer": "必ずしも完全に置き換えるものではありませんが、ADaM作成においては非常に強力な代替手段となり得ます。多くの製薬企業やCROでは、規制当局への申請時にSASコードやログが求められる場合があるため、SASとRを併用するハイブリッドなアプローチが一般的です。しかし、探索的解析や社内レポート作成などではRの活用が広がっています。長期的に見れば、Rの採用範囲は拡大していくでしょう。"
    },
    {
      "question": "admiralを使う最大のメリットは何ですか？",
      "answer": "最大のメリットは、ADaMデータセットの作成を標準化し、効率化できる点です。CDISC ADaM IG（Implementation Guide）に準拠した関数が提供されるため、プログラミングミスを減らし、コードのレビューを容易にします。また、`tidyverse`との高い親和性により、直感的で読みやすいコードを記述できます。"
    },
    {
      "question": "admiralは日本のPMDA申請にも使えますか？",
      "answer": "現在のPMDA（医薬品医療機器総合機構）の技術的要件では、SASに加え、Rも申請資料に利用できることが明記されています。ただし、Rで作成した資料を提出する際には、Rのバージョン管理や使用したパッケージ、計算結果の再現性などについて十分な説明が求められます。`admiral`を含むPharmaverseのパッケージ群は、その透明性とバリデーションにより、将来的にPMDA申請での活用がさらに進むと期待されています。"
    },
    {
      "question": "RとAIアシスタントを組み合わせる具体的な方法は？",
      "answer": "AIアシスタント、例えばChatGPTのような大規模言語モデルは、`admiral`のコード生成、デバッグ、ドキュメンテーション作成、コードレビュー支援に活用できます。具体的には、「SDTMのラボデータからADaMのADLBを作成する`admiral`のコード例を生成して」といったプロンプトでコードの骨格を得たり、エラーメッセージをAIに解析させて解決策を提案してもらったりすることが可能です。これにより、プログラミング学習の加速や開発時間の短縮が期待できます。"
    },
    {
      "question": "admiral以外に知っておくべき臨床試験用Rパッケージはありますか？",
      "answer": "はい、たくさんあります。特に`Pharmaverse`イニシアティブで開発されているパッケージ群が重要です。具体的には、テーブル生成のための`rtables`、TLF作成を効率化する`Tplyr`、グラフ作成や統計的要約のための`tern`などが挙げられます。これらのパッケージは`admiral`と連携し、Rで臨床試験データ解析の全工程をカバーするための強力なツールとなります。"
    }
  ],
  "hero_emoji": "📝",
  "hero_gradient": "135deg",
  "keyword": "{admiral}, Rパッケージ, 臨床試験, ADaM, AIアシスタント, プログラミング",
  "category": "R for Clinical Trials",
  "generated_at": "2026-04-08T05:08:51.358837",
  "has_affiliate": true,
  "affiliate_count": 3,
  "eyecatch_url": "https://images.unsplash.com/photo-1504868584819-f8e8b4b6d7e3?w=1200&h=630&fit=crop&auto=format&q=80",
  "eyecatch_credit": "Photo from [Unsplash](https://unsplash.com/)"
}