{
  "title": "R/admiralで学ぶICH E9(R1) Estimand実践ガイド",
  "content": "# R/admiralで学ぶICH E9(R1) Estimand実践ガイド\n\n![R/admiralで学ぶICH E9(R1) Estimand実践ガイド](https://images.unsplash.com/photo-1507003211169-0a1dd7228f2d?w=1200&h=630&fit=crop&auto=format&q=80)\n\n*Photo from [Unsplash](https://unsplash.com/)*\n\n\n## この記事でわかること\n*   ICH E9(R1) Estimand（エスティマンド）の基本的な考え方と重要性\n*   Estimandを構成する5つの属性（治療、対象集団、エンドポイント、事象後変量、集団レベル要約）の詳細\n*   Treatment Policy（治療方針戦略）やHypothetical Strategy（仮想戦略）などの事象後変量（Intercurrent Events）に対する戦略\n*   Rの`admiral`パッケージを活用したEstimandに基づく臨床試験プログラミングの実践例\n*   臨床試験におけるEstimandの具体的な活用場面と最新の国際動向\n\n## 結論から言うと\n**ICH E9(R1) Estimandは、「何を推定したいのか」を明確に定義するための極めて重要なフレームワークです。** 特に、臨床試験中に発生する事象後変量（Intercurrent Events）への対応戦略を事前に定めることで、一貫性のある、かつ解釈しやすい治療効果の推定が可能になります。Rの`admiral`パッケージは、このEstimandに基づいたCDISC ADaMデータセット作成を効率化し、再現性の高い臨床試験プログラミングを支援します。\n\n## ICH E9(R1) Estimandとは？\n\n臨床試験において、私たちは「治療によって何がどれくらい変化したのか？」を知りたいと考えます。しかし、試験期間中には様々な予期せぬ出来事（例えば、副作用による治療中止、併用薬の使用など）が発生し、これが治療効果の評価を複雑にすることがあります。ICH E9(R1) Estimand（エスティマンド）は、このような複雑な状況において、「**試験の目的として、具体的に何を（治療効果として）推定したいのか**」を明確に定義するためのフレームワークです。\n\n2019年に発効されたICH E9(R1)「Statistical Principles for Clinical Trials: Addendum on Estimands and Sensitivity Analysis in Clinical Trials」は、医薬品開発における統計的解析の透明性と解釈可能性を向上させることを目的としています。このガイドラインの中心概念が「Estimand」であり、臨床試験のプロトコル段階から解析結果の報告までを一貫した論理で結びつける役割を担います。\n\nEstimandを定義することで、全ての関係者（スポンサー、規制当局、医師、患者など）が、評価すべき治療効果について共通の理解を持つことができます。これにより、曖昧な解釈や誤解を防ぎ、臨床試験の科学的根拠をより強固なものにすることができるのです。\n\n## 統計的背景・理論\n\nEstimandは、以下の5つの属性を具体的に定義することで構成されます。これらの属性を明確にすることで、「何を測定し、何を比較し、何を結論づけるのか」が詳細に記述されます。\n\n1.  **治療 (Treatment)**: 評価対象となる介入（治療薬、プラセボなど）と、その投与方法や期間を特定します。例えば、「治験薬X 10mg 1日1回投与」や「プラセボ 1日1回投与」といった具体的な内容です。\n2.  **対象集団 (Population)**: 治療効果を推定したい患者集団を定義します。これは通常、試験の組み入れ基準・除外基準によって定められる集団です。例えば、「2型糖尿病でHbA1cが7.0%～10.0%の成人患者」などが該当します。\n3.  **エンドポイント (Endpoint)**: 治療効果を評価するための測定指標です。例えば、「ベースラインから24週目のHbA1c変化量」や「全生存期間」などがこれにあたります。単一のエンドポイントだけでなく、複合エンドポイントや複数の主要・副次エンドポイントが設定されることもあります。\n4.  **事象後変量 (Intercurrent Events; IEs)**: これがEstimandの最も重要な要素の一つです。IEsとは、**無作為化後、かつ治療期間中に発生し、治療効果の解釈を複雑にする可能性のある事象**を指します。具体例としては、以下のようなものが挙げられます。\n    *   治験薬の服用中止（副作用、効果不足、患者の希望など）\n    *   治療アドヒアランス（服薬遵守）の低下\n    *   規定された治療以外の追加治療（レスキュー薬の使用など）\n    *   規定された治療への非遵守\n    *   その他の重篤な併発疾患の発生\n    Estimandフレームワークでは、これらのIEsに対してどのように対処するか（つまり、IEsが発生した場合でも、治療効果をどのように定義し、評価するか）を戦略的に定義します。\n5.  **集団レベル要約 (Population-level summary)**: 特定の対象集団における治療効果をどのように要約して提示するかを定義します。例えば、「平均変化量の差」「中央値の差」「ハザード比」「オッズ比」など、統計的な指標がこれに当たります。これは、推定量の種類（例: 平均、中央値）と、それを比較する方法（例: 差、比）を指します。\n\n### 事象後変量（IEs）に対する戦略\n\nIEsへの対処戦略は、Estimandの核心部分であり、ICH E9(R1)では主に以下の4つの戦略が提示されています。\n\n1.  **Treatment Policy Strategy (治療方針戦略)**:\n    この戦略では、**IEが発生したとしても、無作為化された最初の治療方針を維持したと仮定して治療効果を評価します。** いわゆる「Intention-To-Treat (ITT) 原則」（治療意図解析）に最も近い考え方です。患者が無作為化された治療アームにとどまり続けた場合の効果を推定します。治療中断や併用薬の使用など、IEが発生しても、その患者を元の治療グループから除外せず、追跡可能な限りデータ収集を続け、解析に含めます。\n    *   **例**: 降圧剤の臨床試験で、副作用により治験薬を中断し、別の降圧剤に切り替えた患者がいる場合でも、その患者は治験薬群の一部として解析に含める。\n    *   **数式表現**: $E[Y_1 - Y_0]$ （ここで $Y_1$ と $Y_0$ はそれぞれ治療群1と治療群0に無作為化された場合の最終的なアウトカム）\n\n2.  **Hypothetical Strategy (仮想戦略)**:\n    この戦略では、**「もしIEが発生しなかったら、治療効果はどうなっていたか」という仮想的な状況を仮定して治療効果を評価します。** 例えば、治療アドヒアランスが完璧だったら、あるいはレスキュー薬が使用されなかったら、という状況を想定します。これは、特定のIEを排除または修正した場合の治療効果を推定したい場合に有用です。\n    *   **例**: 2型糖尿病の試験で、もし血糖コントロールが悪化してもレスキュー薬が使用されなかった場合の、治験薬の効果を評価する。\n    *   **数式表現**: $E[Y_1 | \\text{IE non-occurrence}] - E[Y_0 | \\text{IE non-occurrence}]$ （特定のIEが発生しなかったという条件下での効果）\n\n3.  **Principal Stratum Strategy (主層戦略)**:\n    この戦略では、**IEが発生しなかった、あるいは特定のIEの発生様式が共通する患者層（主層）に限定して治療効果を評価します。** この戦略は、IEの発生が患者の治療反応性と関連する場合に特に有用ですが、解析が複雑になる傾向があります。\n    *   **例**: 「試験期間中に治療アドヒアランスを維持できた患者」という主層に限定して、その層での治験薬の効果を評価する。\n    *   **数式表現**: $E[Y_1 - Y_0 | S=s]$ （IEの発生パターン $s$ を持つ主層 $S$ における効果）\n\n4.  **Composite Strategy (複合戦略)**:\n    この戦略では、**IEそのものをエンドポイントの一部として組み込みます。** IEの発生を「好ましくないアウトカム」として定義し、元々のエンドポイントと複合させることで、治療効果全体を評価します。\n    *   **例**: エンドポイントを「24週目のHbA1c変化量」ではなく、「24週目のHbA1c変化量」または「治療中断」または「レスキュー薬使用」といった複合イベントとして定義する（例: 治療中断が発生した場合は、HbA1c変化量をworst caseに設定するなど）。\n    *   **数式表現**: $E[\\text{Composite Endpoint}_1 - \\text{Composite Endpoint}_0]$ （複合エンドポイントの差）\n\nこれらの戦略は、プロトコル作成時に慎重に検討され、主要解析のEstimandとして明記される必要があります。また、主要解析のEstimandとは異なる戦略を用いた感度分析（Sensitivity Analysis）も推奨されており、解析結果の頑健性（Robustness）を示すために不可欠です。\n\n## SAS/Rコード実装\n\nここでは、Rの`admiral`パッケージを活用して、Estimandの概念に基づいたCDISC ADaMデータセットの作成例を示します。特に、事象後変量（IE）に対する`Hypothetical Strategy`を適用する場面を想定し、治療中断が発生した場合の処理に焦点を当てます。\n\n`admiral`パッケージは、Tidyverse原則に則り、CDISC ADaMデータセットの標準的な導出プロセスを効率化するために設計されています。臨床統計プログラマにとって非常に強力なツールとなっています。\n\n```R\n# 必要なパッケージのロード\nlibrary(tidyverse) # データ操作のための基盤パッケージ\nlibrary(admiral)   # CDISC ADaMデータセット作成のためのパッケージ\n\n# --- 1. サンプルデータの作成 --- #\n# 臨床試験の主要な情報を含むADSL (Subject-Level Data) を模擬します。\n# TRT01A: 治療群, SAFFL: 有効性評価対象フラグ\nadsl <- tribble(\n  ~USUBJID, ~TRT01A, ~SEX, ~AGE, ~SAFFL, ~RANDDT,\n  \"PAT001\", \"Treatment A\", \"M\", 45, \"Y\", \"2023-01-01\",\n  \"PAT002\", \"Treatment A\", \"F\", 52, \"Y\", \"2023-01-01\",\n  \"PAT003\", \"Treatment B\", \"M\", 60, \"Y\", \"2023-01-01\",\n  \"PAT004\", \"Treatment B\", \"F\", 38, \"Y\", \"2023-01-01\",\n  \"PAT005\", \"Treatment A\", \"F\", 68, \"Y\", \"2023-01-01\",\n  \"PAT006\", \"Treatment B\", \"M\", 55, \"Y\", \"2023-01-01\"\n) %>%\n  mutate(STUDYID = \"STUDY01\", RANDDT = as.Date(RANDDT))\n\n# 測定値データを含むADPC (Parameter-Level Data - e.g., HbA1c measurements) を模擬します。\n# AVISITN: 訪問番号, AVAL: 測定値\nadpc <- tribble(\n  ~USUBJID, ~AVISIT, ~AVISITN, ~PCTESTCD, ~AVAL, ~ADY,\n  \"PAT001\", \"BASELINE\", 0, \"HBA1C\", 7.5, 1,\n  \"PAT001\", \"WEEK 4\",   4, \"HBA1C\", 7.2, 29,\n  \"PAT001\", \"WEEK 24\", 24, \"HBA1C\", 6.8, 169,\n  \"PAT002\", \"BASELINE\", 0, \"HBA1C\", 8.0, 1,\n  \"PAT002\", \"WEEK 4\",   4, \"HBA1C\", 7.8, 29,\n  \"PAT002\", \"WEEK 12\", 12, \"HBA1C\", 7.9, 85, # PAT002はWEEK 12までで、その後治療中断\n  \"PAT003\", \"BASELINE\", 0, \"HBA1C\", 7.8, 1,\n  \"PAT003\", \"WEEK 4\",   4, \"HBA1C\", 7.6, 29,\n  \"PAT003\", \"WEEK 24\", 24, \"HBA1C\", 7.0, 169,\n  \"PAT004\", \"BASELINE\", 0, \"HBA1C\", 7.2, 1,\n  \"PAT004\", \"WEEK 4\",   4, \"HBA1C\", 7.0, 29,\n  \"PAT004\", \"WEEK 24\", 24, \"HBA1C\", 6.5, 169,\n  \"PAT005\", \"BASELINE\", 0, \"HBA1C\", 8.5, 1,\n  \"PAT005\", \"WEEK 4\",   4, \"HBA1C\", 8.2, 29,\n  \"PAT005\", \"WEEK 24\", 24, \"HBA1C\", 8.0, 169,\n  \"PAT006\", \"BASELINE\", 0, \"HBA1C\", 7.0, 1,\n  \"PAT006\", \"WEEK 4\",   4, \"HBA1C\", 6.9, 29,\n  \"PAT006\", \"WEEK 24\", 24, \"HBA1C\", 6.6, 169\n) %>%\n  mutate(STUDYID = \"STUDY01\")\n\n# 事象後変量 (Intercurrent Event) データの作成 (例: 治療中断日)\n# EX (Exposure) ドメインの情報を模擬し、治療終了日を中断日と仮定します。\nadex <- tribble(\n  ~USUBJID, ~EXSTDTC, ~EXENDTC, ~EXTRT,\n  \"PAT001\", \"2023-01-01\", \"2023-06-30\", \"Treatment A\",\n  \"PAT002\", \"2023-01-01\", \"2023-03-31\", \"Treatment A\", # PAT002は3月末で治療中断\n  \"PAT003\", \"2023-01-01\", \"2023-06-30\", \"Treatment B\",\n  \"PAT004\", \"2023-01-01\", \"2023-06-30\", \"Treatment B\",\n  \"PAT005\", \"2023-01-01\", \"2023-06-30\", \"Treatment A\",\n  \"PAT006\", \"2023-01-01\", \"2023-06-30\", \"Treatment B\"\n) %>%\n  mutate(\n    STUDYID = \"STUDY01\",\n    EXSTDTC = as.Date(EXSTDTC),\n    EXENDTC = as.Date(EXENDTC)\n  )\n\n# --- 2. Hypothetical Strategyの適用例 (治療中断の場合) --- #\n# 「もし治療中断がなかったら」という仮想的な状況を考慮するための処理\n\n# 治療中断日を特定 (例として、EXENDTCが最終観察日(2023-06-30)より前の場合は中断とみなす)\nfinal_obs_date <- max(adpc$ADY) # ADYから最終観察日を決定\n\ndiscontinuation_info <- adex %>%\n  # 最終観察日より前に治療が終了している患者を特定\n  filter(EXENDTC < as.Date(\"2023-01-01\") + final_obs_date - 1) %>%\n  select(USUBJID, IE_DATE = EXENDTC) %>%\n  mutate(IE_FLAG = \"Y\")\n\n# ADPCデータに治療中断情報をマージ\n# admiralパッケージのヘルパー関数を使用することも可能ですが、ここでは概念をわかりやすくするために直接操作します。\n\nadpp_hypothetical <- adpc %>%\n  # ADSLから無作為化日を結合してADYを正確に計算\n  left_join(adsl %>% select(USUBJID, RANDDT), by = \"USUBJID\") %>%\n  # 治療中断情報を結合\n  left_join(discontinuation_info, by = \"USUBJID\") %>%\n  # ADY (試験開始日からの日数) を正確に計算するためにベースライン日を仮定\n  mutate(ADDT = RANDDT + days(ADY - 1)) %>% # ADYは1始まりと仮定\n  # Hypothetical Strategy:\n  # IE発生日 (IE_DATE) 以降の測定値は、Estimandの定義に従って処理します。\n  # ここでは単純に欠損値 (NA) とします (実際には多重補完などを用いることが一般的です)。\n  mutate(\n    AVAL_PROCESSED = if_else(\n      !is.na(IE_FLAG) & ADDT > IE_DATE,\n      NA_real_, # IE発生後の値をNAにする\n      AVAL       # IE発生前の値はそのまま\n    )\n  ) %>%\n  # ベースラインからの変化量を導出\n  group_by(USUBJID, PCTESTCD) %>%\n  mutate(\n    BASE = AVAL_PROCESSED[AVISITN == 0], # ベースライン値を取得\n    CHG = AVAL_PROCESSED - BASE,        # 変化量を計算\n    AVAL_CHG = if_else(AVISITN == 0, NA_real_, CHG) # ベースラインの変化量はNA\n  ) %>%\n  ungroup() %>%\n  # ADaM形式に整形\n  select(STUDYID, USUBJID, AVISIT, AVISITN, ADY, ADDT, PCTESTCD, AVAL, AVAL_PROCESSED, BASE, AVAL_CHG, IE_FLAG, IE_DATE) %>%\n  # ADSL情報をマージ\n  left_join(adsl %>% select(STUDYID, USUBJID, TRT01A, SEX, AGE), by = c(\"STUDYID\", \"USUBJID\"))\n\n# 結果の確認 (PAT002のデータに注目してください)\n# PAT002はWEEK 12で治療中断しているため、WEEK 24のAVAL_PROCESSEDとAVAL_CHGがNAになります。\n# これは「もし治療中断がなかったら」という仮想的な状況を考慮した結果です。\nprint(adpp_hypothetical %>%\n        filter(USUBJID == \"PAT002\") %>%\n        select(USUBJID, AVISIT, AVAL, AVAL_PROCESSED, AVAL_CHG, IE_FLAG, IE_DATE), width = Inf)\n\n# --- 3. admiralの関数を使ったEstimand関連の変数導出例 --- #\n# admiral::derive_param_response() などを使って、より複雑なエンドポイントや\n# IEを考慮したパラメータを導出することも可能です。\n# 例えば、\n\n## 臨床統計スキルを磨くためのリソース\n\nこの記事の内容をさらに深めるために、以下のリソースが役立ちます。\n\n- **[Amazon 統計学書籍](https://www.amazon.co.jp?tag=musclelove07-22)** - 臨床統計・生物統計の参考書\n- **[Udemy SAS/R講座](https://www.udemy.com)** - 動画で学ぶSAS/R統計プログラミング\n- **[楽天 統計書籍](https://www.rakuten.co.jp)** - 統計学・データサイエンスの参考書\n\n*上記リンクからご利用いただくと、サイト運営の支援になります。*\n",
  "hero_emoji": "📝",
  "hero_gradient": "135deg",
  "meta_description": "R/admiralで学ぶICH E9R1 Estimand実践ガイド\n\n この記事でわかること\n   ICH E9R1 Estimand（エスティマンド）の基本的な考え方と重要性\n   Estimandを構成する5つの属性（治療、対象集団",
  "tags": [
    "自動生成",
    "ブログ",
    "記事",
    "SEO",
    "最新"
  ],
  "slug": "radmiralich-e9r1-estimand",
  "keyword": "R, admiral, CDISC ADaM, AI, 臨床試験プログラミング, ICH E9(R1) Estimand",
  "category": "ICH E9(R1) Estimand",
  "generated_at": "2026-04-14T05:19:52.857145",
  "has_affiliate": true,
  "affiliate_count": 3,
  "eyecatch_url": "https://images.unsplash.com/photo-1507003211169-0a1dd7228f2d?w=1200&h=630&fit=crop&auto=format&q=80",
  "eyecatch_credit": "Photo from [Unsplash](https://unsplash.com/)"
}