{
  "title": "R言語×admiralで臨床試験を革新！ADaM構築とAIアシストプログラミング",
  "meta_description": "R言語とadmiralパッケージで臨床試験ADaMデータセット構築を効率化。AIアシストプログラミングの活用法、最新動向まで解説。R for Clinical Trialsの全てがここに。",
  "slug": "r-admiral-clinical-trials-adam-ai",
  "tags": [
    "R言語",
    "admiral",
    "臨床試験",
    "ADaM",
    "RforClinicalTrials"
  ],
  "faq": [
    {
      "question": "R言語を臨床試験で使うメリットは何ですか？",
      "answer": "R言語は、高度な統計解析機能と豊富なグラフィックス機能、そしてオープンソースであることによる高い柔軟性が最大のメリットです。admiralパッケージのような専門的なツールと組み合わせることで、ADaM構築からTLG作成までを一貫して効率的に行えます。また、世界中の統計コミュニティと知識を共有できる点も強みです。"
    },
    {
      "question": "SASからRへの移行は難しいですか？",
      "answer": "SASプログラマーの方にとって、R言語の記法や考え方に慣れるまでには一定の学習期間が必要です。しかし、tidyverseの登場により、データ操作の直感性が向上し、admiralなどのパッケージが臨床試験特有のニーズに応えることで、移行のハードルは着実に下がっています。特に、AIアシストプログラミングを活用すれば、学習を加速させることも可能です。"
    },
    {
      "question": "admiralパッケージはどの程度の複雑なADaMデータセットに対応できますか？",
      "answer": "admiralパッケージは、CDISC ADaM IG（Implementation Guide）の原則に厳密に準拠するように設計されており、非常に複雑な派生ルールを持つADaMデータセットの構築にも対応できます。一般的な有効性エンドポイント、安全性イベント、薬物動態パラメータなど、多様な種類のADaMデータセットを効率的に作成するための関数が用意されています。コミュニティも活発で、常に機能が拡張されています。"
    },
    {
      "question": "AIアシストプログラミングは、Rコードのバリデーションに影響しますか？",
      "answer": "はい、影響します。AIが生成したコードはあくまで「ドラフト」であり、人間による厳密なレビューとバリデーションが不可欠です。AIは文法的な誤りや一般的なロジックは生成できますが、臨床試験特有の複雑なビジネスルールや規制要件を完全に理解しているわけではありません。そのため、生成されたコードの正確性、完全性、そして規制要件への適合性を徹底的に検証する必要があります。AIはツールであり、最終的な責任はプログラマーにあります。"
    }
  ],
  "content": "# R言語×admiralで臨床試験を革新！ADaM構築とAIアシストプログラミング\n\n![R言語×admiralで臨床試験を革新！ADaM構築とAIアシストプログラミング](https://images.unsplash.com/photo-1611532736597-de2d4265fba3?w=1200&h=630&fit=crop&auto=format&q=80)\n\n*Photo from [Unsplash](https://unsplash.com/)*\n\n\n## この記事でわかること\n*   臨床試験におけるR言語とadmiralパッケージの活用法がわかります。\n*   ADaM（解析データモデル）データセットの効率的な作成方法を学べます。\n*   AIアシストプログラミングが臨床試験のデータ解析にもたらす可能性を理解できます。\n*   R for Clinical Trialsの最新動向と実践的なRコード例を確認できます。\n\n## 結論から言うと\n臨床試験のデータ解析において、R言語とadmiralパッケージはADaMデータセットの構築を劇的に効率化します。さらに、AIアシストプログラミングを組み合わせることで、プログラミング作業の自動化・最適化が加速し、より迅速で信頼性の高い解析が可能になります。これらの技術は、日本の臨床統計担当者の業務を大きく変革する可能性を秘めています。\n\n## R言語、admiralパッケージ、ADaMとは？\nこんにちは、臨床統計ラボのKです。10年以上にわたり製薬企業やCROで臨床試験の統計解析に携わってきました。\n\nこのブログでは、海外の最新統計手法や実践的なプログラミング技術を、日本の臨床統計担当者の皆さんにお届けしています。今回は、臨床試験（Clinical Trial）のデータ解析におけるR言語の可能性、特に**admiralパッケージ**と**AIアシストプログラミング**に焦点を当てて深掘りしていきます。\n\n### R言語とは？\nR言語は、統計解析（Statistical Analysis）とグラフィックス（Graphics）のために開発されたオープンソース（Open-source）のプログラミング言語（Programming Language）です。その強力な統計処理能力と豊富なパッケージ（Package）群により、アカデミア（Academia）だけでなく、近年では製薬業界（Pharmaceutical Industry）やCRO（Contract Research Organization：医薬品開発業務受託機関）でも注目を集めています。\n\n特に、その柔軟性と再現性（Reproducibility）の高さから、FDA（米国食品医薬品局）などの規制当局（Regulatory Authorities）もR言語で作成された解析結果を受け入れる姿勢を示しており、まさに「R for Clinical Trials」が現実のものとなりつつあります。\n\n### admiralパッケージとは？\nadmiral（Analysis Data Model in R）パッケージは、CDISC（Clinical Data Interchange Standards Consortium：臨床研究データを標準化するための非営利団体）のADaM（Analysis Data Model：臨床試験の統計解析に用いるための標準化された解析データセットモデル）に準拠した解析データセットをR言語で効率的に作成するために開発されたパッケージ群です。\n\nPharmaverse（ファーマバース）という、臨床試験向けRパッケージのエコシステム（Ecosystem）の一部として、[admiral](https://ard.pharmaverse.org/articles/admiral.html)は**tidyverse**（データ操作・可視化のためのRパッケージ群）の思想に基づき、読みやすく、保守しやすいコード（Maintainable Code）でADaMデータセットを構築できます。\n\nこれにより、従来SASなどで手動で行っていた多くのデータ変換・派生作業を、一貫性のあるフレームワーク（Framework）で自動化・標準化することが可能になります。\n\n### ADaMデータセットとは？\nADaMデータセットは、臨床試験の統計解析を効率的かつ標準的に実施するためにCDISCが定めたデータモデルです。治験実施計画書（Protocol）や統計解析計画（Statistical Analysis Plan; SAP）で定義された解析に直接使用できるよう、生データ（Raw Data）やSDTM（Study Data Tabulation Model：臨床試験の提出用標準データセット）データセットから派生（Derivation）されます。\n\nADaMデータセットの主な種類には、被験者レベルの解析データセットであるADSL（Subject-Level Analysis Data Set）や、有効性・安全性評価項目ごとの解析データセット（例: ADPC, ADVS, ADEF）などがあります。これにより、統計解析の再現性と透明性が向上し、規制当局への提出資料（Submission Documents）の品質確保にも貢献します。\n\n### AIアシストプログラミングとは？\nAIアシストプログラミングとは、ChatGPTやGitHub Copilotなどの大規模言語モデル（Large Language Models; LLMs）を活用し、プログラミングコードの生成、デバッグ（Debugging）、最適化、ドキュメント作成などを支援する技術です。\n\n臨床統計の分野では、ADaMデータセットの派生ルールに基づいたRコードの自動生成、複雑な統計モデル（Statistical Models）の実装支援、既存コードのエラー検出、さらには統計解析報告書（Statistical Analysis Report; CSR）のドラフト作成など、多岐にわたる応用が期待されています。これにより、プログラマーはより高度な思考や検証作業に集中できるようになります。\n\n## 統計的背景・理論\nADaMデータセットの構築は、単なるデータ変換ではありません。そこには、統計解析計画（SAP）で定められた解析目的（Analysis Objectives）を達成するための統計的考慮事項（Statistical Considerations）が深く関わっています。\n\n### ADaMと統計解析計画（SAP）の連携\nADaMは、SAPで定義されたエンドポイント（Endpoint：評価項目）、解析対象集団（Analysis Population）、そして統計手法（Statistical Methods）に基づいて設計されます。例えば、SAPで特定のサブグループ解析（Subgroup Analysis）が計画されていれば、ADaMにはそのサブグループを識別するための変数（Variable）が適切に派生されている必要があります。\n\nまた、欠測値（Missing Values）の扱い、共変量（Covariate）の定義、アウトライアー（Outlier：外れ値）の処理などもADaM設計時に考慮され、解析データセットの品質を保証します。\n\n例えば、ある有効性エンドポイントの平均値を比較する解析を考えます。SAPでは、そのエンドポイントの算出方法、解析対象集団（例: FAS; Full Analysis Set）、そしてベースライン（Baseline）からの変化量の平均値を比較することが定められています。ADaMでは、これらを反映した変数が作成されます。\n\nベースライン値 ($X_{baseline}$) からの変化量 ($ \\Delta X $) は以下のように定義されます。\n$$ \\Delta X = X_{post-baseline} - X_{baseline} $$\n\nそして、この変化量に対する平均値 ($\\bar{\\Delta X}$) や標準偏差 ($S_{\\Delta X}$) などの要約統計量（Summary Statistics）が算出され、統計的仮説検定（Statistical Hypothesis Testing）に利用されます。ADaMは、このような解析を直接実施できるよう、事前にデータを整形し、解析に必要な変数を準備する役割を担います。\n\n## SAS/Rコード実装\nここでは、R言語とadmiralパッケージを用いたADaMデータセットの構築例を紹介します。特に、ADSL（被験者レベル解析データセット）の基本的な構築プロセスを、tidyverseスタイルで記述していきます。\n\nまず、必要なパッケージを読み込みます。まだインストールしていない場合は、`install.packages()`でインストールしてください。\n\n```R\n# 必要なパッケージの読み込み\nlibrary(tidyverse) # データ操作全般\nlibrary(admiral)   # ADaMデータセット構築用\nlibrary(admiraldev) # admiralのヘルパー関数とサンプルデータ\n\n# admiralパッケージのバージョン確認（推奨）\npackageVersion(\"admiral\")\n```\n\n### サンプルSDTMデータの準備\n今回は`admiraldev`パッケージに含まれるサンプルデータ`adsl` (ADaM Subject-Level Data) と`vs` (Vital Signs) を使って、ADSLを構築する例を示します。実際の臨床試験では、SDTM（Study Data Tabulation Model）データセット（DM, VSなど）からADaMを派生させます。\n\n```R\n# admiraldevのサンプルSDTMデータを取得\ndata(\"vs\") # バイタルサインデータ\ndata(\"dm\") # 人口統計データ\n\n# SDTM DMデータを基に基本的なADSLデータを作成\n# DMからADSLに必要な変数を抽出・整形する例\nadsl_base <- dm %>%\n  select(STUDYID, USUBJID, SUBJID, SITEID, AGE, SEX, RACE, ETHNIC)\n\n# SDTM VSデータからベースラインのバイタルサイン情報を取得する準備\n# ベースライン定義（通常はVisit 'SCREENING' またはDay 1のデータ）\nvs_base <- vs %>%\n  filter(VSTESTCD == \"SYSBP\" & VISITNUM == 1) %>%\n  group_by(USUBJID) %>%\n  # 各被験者の初回血圧データをベースラインとして抽出\n  # ADT、AVISITなどの日付・Visit情報も考慮して正確なベースラインを特定します\n  # ここでは簡略化のため、Visit 1の最初のSYSBPを採用\n  slice(1) %>%\n  select(USUBJID, SYSBP_BASE = VSSTRESN)\n\n# DMとVSベースラインデータを結合してADSLの初期形を作成\nadsl_initial <- adsl_base %>%\n  left_join(vs_base, by = \"USUBJID\")\n\n# 確認\nhead(adsl_initial)\n```\n\n### ADSLデータセットの構築例\nadmiralパッケージの関数を使って、ADaM変数（例: `AGEGR1` (年齢グループ), `SAFFL` (安全性解析対象フラグ)）を派生させます。`derive_vars_dtm_to_dt()` は日付/時間変数から日付を抽出する関数です。\n\n```R\n# ADSLデータセットの本格的な構築\n# まず、derive_vars_dtm_to_dt()などで日付変数を整形（SDTMのDTM変数をDate型に変換）\n# 例: 出生日の派生（実際にはSDTM.DMから派生）\n# dm$BRTHDT <- as.Date(dm$BRTHDT) # 実際にはSDTMから変換\n\n# ここでは簡略化のため、adsl_initialをベースに進めます\n# 実際のadmiralの例はSDTM.DMからadslを構築します\n\n# ADSLの例（admiraldevのadslデータを使います。実際はSDTMから導出します）\n# admiraldev::adslは既に多くのADaM変数が含まれていますが、\n# ここでは一部の派生処理を模倣します。\n\n# admiraldev::adsl を利用して、追加の派生変数を考慮したADSLを構築\n# このadslデータは既に多くのADaM変数が含まれています\nmy_adsl <- admiraldev::adsl %>%\n  # 年齢グループ変数の派生\n  derive_var_age_gr(age_var = AGE, \n                    breaks = c(18, 65, Inf), \n                    labels = c(\"18-64\", \"65+\"), \n                    new_var = AGEGR1) %>%\n  # 安全性解析対象フラグ (SAFFL) の派生例\n  # 通常はADSLの条件（例: 治験薬を1回でも投与した被験者）に基づいて設定\n  mutate(SAFFL = if_else(!is.na(TRTSDT) & !is.na(TRTEDT), \"Y\", \"N\")) %>%\n  # ランダム化フラグ (RANDFL) の派生例\n  # 通常はDMのRANDFL変数やRandomizationデータから設定\n  mutate(RANDFL = if_else(!is.na(RANDDT), \"Y\", \"N\")) %>%\n  # 治療期間 (TRTDUR) の派生例\n  # derive_vars_duration()などのadmiral関数で期間を算出可能\n  # ここでは簡略化のため、TRTEDT - TRTSDT + 1 で日数を計算\n  mutate(TRTDUR = as.numeric(TRTEDT - TRTSDT) + 1)\n\n# 派生された変数を確認\nmy_adsl %>%\n  select(USUBJID, AGE, AGEGR1, SAFFL, RANDFL, TRTDUR) %>%\n  head()\n```\n\n上記は基本的なADSL構築の例ですが、admiralにはさらに多くのヘルパー関数（Helper Functions）があり、複雑な派生ロジック（Derivation Logic）も簡潔に記述できます。例えば、`derive_vars_merged()`で他のデータセットからのマージ、`derive_vars_extreme_event()`で初回イベント発生日の特定などが可能です。\n\n### rtablesとTplyrによるTLG作成への連携\nadmiralでADaMデータセットを構築した後、そのADaMデータセットを使ってTLG（Tables, Listings, Graphs：表、一覧、図）を作成します。Rには、高品質なTLGを作成するためのパッケージが複数あります。特に、`rtables`と`Tplyr`は、臨床試験に特化したパッケージとして注目されています。\n\n*   **rtables**: プロダクション品質のテーブル（表）を生成するために設計されています。複雑な階層構造を持つテーブルや、条件付きのセルフォーマット（Cell Formatting）など、臨床試験の要求に応える柔軟性を持っています。\n*   **Tplyr**: ADaMデータセットから要約統計量テーブルを生成することに特化しており、SAS PROC REPORTのような直感的な記述で統計表を作成できます。\n\nこれらのパッケージは、admiralで作成したADaMデータセットとシームレスに連携し、統計解析計画（SAP）で定義された表を効率的に作成するのに役立ちます。\n\n## 実務での活用場面\nR言語、admiralパッケージ、そしてAIアシストプログラミングは、臨床試験の様々な実務場面でその真価を発揮します。\n\n1.  **ADaMデータセットの効率的な構築とバリデーション（Validation）**: admiralを使用することで、ADaMデータセットの構築にかかる時間を大幅に短縮できます。標準化された関数を使うことで、プログラミングエラー（Programming Error）を減らし、バリデーション作業も容易になります。特に、複数の試験で共通のADaM変数を派生させる場合に、テンプレート（Template）化が容易になります。\n2.  **統計解析計画（SAP）に基づく解析の自動化**: ADaMが標準化されることで、SAPで定義された統計解析を直接Rスクリプト（R Script）に落とし込みやすくなります。rtablesやTplyrと組み合わせることで、テーブル、リスティング、グラフ（TLG）の生成プロセス全体を自動化し、解析担当者の負担を軽減できます。\n3.  **申請資料（NDA/MAA）作成の迅速化**: 信頼性の高いADaMデータセットと、再現性のある解析コードは、新薬承認申請（NDA: New Drug Application / MAA: Marketing Authorisation Application）資料の作成において非常に重要です。R for Clinical Trialsの動きは、申請資料におけるRの受け入れを後押ししています。\n4.  **AIアシストプログラミングによる開発効率の向上**: \n    *   **コード生成**: SAPや派生仕様書（Derivation Rule）から、AIがRコード（特にadmiralの関数）のドラフトを生成します。これにより、プログラマーはゼロからコードを書く手間が省け、コードレビュー（Code Review）やカスタマイズに集中できます。\n    *   **デバッグとエラー検出**: AIは既存のRコードを解析し、潜在的なバグ（Bug）や非効率な記述を指摘します。これにより、コードの品質と堅牢性（Robustness）が向上します。\n    *   **ドキュメント作成**: ADaMデータセットの変数定義や、Rコードのコメント、ユーザーガイドなどのドキュメント作成をAIが支援し、作業時間を大幅に削減します。\n    *   **コードレビューのサポート**: AIは提案されたコード変更をレビューし、コーディング規約（Coding Conventions）への準拠や潜在的な副作用（Side Effects）を評価するのに役立ちます。\n\nこれらの活用により、臨床統計担当者はデータクリーニング（Data Cleaning）や反復的なプログラミング作業から解放され、より高度な統計学的考察や、解析結果の解釈に時間を割くことができるようになります。{{internal_link:統計解析報告書作成のコツ}}\n\n## 海外の最新動向\n「R for Clinical Trials」は、単なるトレンドではなく、グローバルな製薬業界で確固たる動きとなっています。以下に主要な動向をいくつか紹介します。\n\n### PharmaverseとR Validation Hub\n**Pharmaverse** ([https://pharmaverse.org/](https://pharmaverse.org/)) は、臨床開発プロセス全体でRの利用を支援するために設計されたRパッケージの集合体です。admiral, rtables, tern, Tplyrなどが含まれ、データ変換からTLG生成までをカバーする包括的なソリューションを提供しています。これにより、各企業が個別にツールを開発するのではなく、共通のオープンソース基盤（Open-source Foundation）上で協力し、業界標準を構築しようとしています。\n\nまた、**R Validation Hub** ([https://www.r-consortium.org/r-validation-hub](https://www.r-consortium.org/r-validation-hub)) は、Rパッケージのバリデーションを促進し、Rが規制当局に受け入れられるためのガイダンスやツールを提供しています。これは、Rを臨床試験の主要な解析ツールとして利用する上での大きな障壁であった「バリデーション」の問題を解決しようとする重要な取り組みです。\n\n### 規制当局のRへの姿勢\nFDAは、Rパッケージを統計解析ソフトウェアとして正式に受け入れることを表明しており、[「Technical Conformance Guide」](https://www.fda.gov/media/132561/download)などのガイダンスでRの使用に関する要件を提示しています。PMDA（医薬品医療機器総合機構）も同様に、Rの利用について検討を進めています。この動きは、RがSASと並ぶ、あるいはそれを超える主要な解析ツールとなりうることを示唆しています。\n\n### AI/MLと臨床試験プログラミング\nPSI（Statisticians in the Pharmaceutical Industry）、ASA（American Statistical Association）、PHUSE（Pharmaceutical Users Software Exchange）などの主要な国際コミュニティでは、AI/ML（機械学習）が臨床試験のデータサイエンス（Data Science）にもたらす影響について活発な議論が交わされています。\n\n特に、AIアシストプログラミングは、プログラマーが反復的な作業から解放され、より複雑な問題解決や戦略的思考に集中できるよう支援する強力なツールとして位置づけられています。しかし、AIが生成したコードの正確性（Accuracy）、バイアス（Bias）、そしてバリデーションの必要性については、引き続き慎重な検討が求められています。{{internal_link:AIを活用した臨床開発の未来}}\n\n## よくある質問（FAQ）\n\n### Q1: R言語を臨床試験で使うメリットは何ですか？\nA1: R言語は、高度な統計解析機能と豊富なグラフィックス機能、そしてオープンソースであることによる高い柔軟性が最大のメリットです。admiralパッケージのような専門的なツールと組み合わせることで、ADaM構築からTLG作成までを一貫して効率的に行えます。また、世界中の統計コミュニティと知識を共有できる点も強みです。\n\n### Q2: SASからRへの移行は難しいですか？\nA2: SASプログラマーの方にとって、R言語の記法や考え方に慣れるまでには一定の学習期間が必要です。しかし、tidyverseの登場により、データ操作の直感性が向上し、admiralなどのパッケージが臨床試験特有のニーズに応えることで、移行のハードルは着実に下がっています。特に、AIアシストプログラミングを活用すれば、学習を加速させることも可能です。\n\n### Q3: admiralパッケージはどの程度の複雑なADaMデータセットに対応できますか？\nA3: admiralパッケージは、CDISC ADaM IG（Implementation Guide）の原則に厳密に準拠するように設計されており、非常に複雑な派生ルールを持つADaMデータセットの構築にも対応できます。一般的な有効性エンドポイント、安全性イベント、薬物動態パラメータなど、多様な種類のADaMデータセットを効率的に作成するための関数が用意されています。コミュニティも活発で、常に機能が拡張されています。\n\n### Q4: AIアシストプログラミングは、Rコードのバリデーションに影響しますか？\nA4: はい、影響します。AIが生成したコードはあくまで「ドラフト」であり、人間による厳密なレビューとバリデーションが不可欠です。AIは文法的な誤りや一般的なロジックは生成できますが、臨床試験特有の複雑なビジネスルールや規制要件を完全に理解しているわけではありません。そのため、生成されたコードの正確性、完全性、そして規制要件への適合性を徹底的に検証する必要があります。AIはツールであり、最終的な責任はプログラマーにあります。\n\n## 臨床統計スキルを磨くためのリソース\n\nこの記事の内容をさらに深めるために、以下のリソースが役立ちます。\n\n- **[Amazon 統計学書籍](https://www.amazon.co.jp?tag=musclelove07-22)** - 臨床統計・生物統計の参考書\n- **[Udemy SAS/R講座](https://www.udemy.com)** - 動画で学ぶSAS/R統計プログラミング\n- **[楽天 統計書籍](https://www.rakuten.co.jp)** - 統計学・データサイエンスの参考書\n\n*上記リンクからご利用いただくと、サイト運営の支援になります。*\n\n\n## まとめ\nR言語、特に**admiralパッケージ**の活用は、臨床試験におけるADaMデータセット構築の「未来」を切り開くものです。そして、そこに**AIアシストプログラミング**が加わることで、プログラミング作業はさらに効率化され、臨床統計担当者はより価値の高い業務に集中できるようになります。\n\nこれは単なる技術革新に留まらず、臨床試験のデータ解析プロセス全体の品質向上と迅速化に貢献し、最終的には患者さんに新しい医薬品をより早く届けることにつながります。日本の臨床統計担当者の皆さんには、ぜひこの新しい波に乗り、R言語とAIの力を最大限に活用して、日々の業務を革新していただきたいと思います。\n\n臨床統計ラボでは、これからもR for Clinical Trialsの最新情報や実践的なノウハウをお届けしていきます。次回もお楽しみに！\n\n---",
  "hero_emoji": "📝",
  "hero_gradient": "135deg",
  "keyword": "R言語, admiralパッケージ, 臨床試験, ADaM, AIアシストプログラミング, R for Clinical Trials",
  "category": "R for Clinical Trials",
  "generated_at": "2026-04-10T05:20:52.806261",
  "has_affiliate": true,
  "affiliate_count": 3,
  "eyecatch_url": "https://images.unsplash.com/photo-1611532736597-de2d4265fba3?w=1200&h=630&fit=crop&auto=format&q=80",
  "eyecatch_credit": "Photo from [Unsplash](https://unsplash.com/)"
}