{
  "title": "R言語で加速する臨床試験：予測モデリングと時系列解析の生物統計実践",
  "meta_description": "R言語と最新パッケージ（admiral, rtables）で、臨床試験の予測モデリングと時系列解析を実践。生物統計家向けのコードと海外動向を詳解。",
  "slug": "r-clinical-trials-predictive-time-series",
  "tags": [
    "R言語",
    "生物統計",
    "予測モデリング",
    "時系列解析",
    "臨床試験"
  ],
  "faq": [
    {
      "question": "Rは製薬業界でSASの代替になりますか？",
      "answer": "完全な代替ではなく、補完的な関係として進化しています。SASは依然主流ですが、Rは探索的解析、最新統計手法、機械学習、ADaM生成・報告書作成の効率化で採用が加速。今後はハイブリッドな環境が一般的になるでしょう。"
    },
    {
      "question": "予測モデルの解釈性はどう担保しますか？",
      "answer": "SHAP値やLIMEなどの説明可能なAI（XAI）手法を用いることで、モデルの予測根拠を定量的に評価できます。Rの`DALEX`や`iml`パッケージで実装可能です。臨床的専門知識との組み合わせで妥当性を検証します。"
    },
    {
      "question": "時系列解析で欠損データはどう扱いますか？",
      "answer": "多重代入法（Rの`mice`パッケージ）、LOCF、または線形混合効果モデルのように欠損値を直接扱えるモデルが有効です。欠損のメカニズムと解析目的に応じて、適切な方法を慎重に選択する必要があります。"
    },
    {
      "question": "`admiral`パッケージの学習コストは高いですか？",
      "answer": "`tidyverse`の知識があれば学習しやすいですが、ADaM仕様と臨床試験ワークフローの理解が前提です。充実したドキュメントと活発なコミュニティがあり、テンプレートから始めることで効率的に習得でき、ADaM生成を効率化できます。"
    },
    {
      "question": "バイオインフォマティクスと生物統計の連携はどのように進みますか？",
      "answer": "両分野の専門家が協力し、オミクスデータからのバイオマーカー同定（バイオインフォマティクス）と、その臨床的関連性・予測能評価（生物統計）を一貫して進めるトランスレーショナル・リサーチが主流です。Rの`Bioconductor`は、この連携を強力にサポートします。"
    }
  ],
  "content": "# R言語で加速する臨床試験：予測モデリングと時系列解析の生物統計実践\n\n![R言語で加速する臨床試験：予測モデリングと時系列解析の生物統計実践](https://images.unsplash.com/photo-1611532736597-de2d4265fba3?w=1200&h=630&fit=crop&auto=format&q=80)\n\n*Photo from [Unsplash](https://unsplash.com/)*\n\n\n## この記事でわかること\n*   R言語を使った臨床試験における予測モデリングの基本とその応用\n*   時系列解析手法の生物統計学的な利用例と実務での活用法\n*   `admiral`や`rtables`など、臨床試験向けのRパッケージの具体的な活用術\n*   SASとRの実装コードを比較し、それぞれのメリットと使い分け\n*   海外の最新トレンドを把握し、日本の臨床統計業務へ取り入れるヒント\n\n## 結論から言うと\nR言語は、現代のライフサイエンス分野、特に臨床試験における予測モデリングや時系列解析において、その柔軟性と豊富なパッケージエコシステムにより強力なツールとなっています。`admiral`や`rtables`といった専門パッケージを深く活用することで、ADaMデータセット（解析用データセット）の生成から解析結果の報告書作成まで、一貫した統計解析プロセスを効率的に構築・実行できます。これにより、新薬開発プロセスの加速、データ駆動型意思決定の強化、そして最終的にはより良い患者ケアの実現に貢献できるでしょう。\n\n## 臨床試験における予測モデリングと時系列解析とは？\n\n臨床試験の分野では、膨大な患者データから有用な知見を引き出し、未来を予測する能力が極めて重要です。ここでは、その中心となる「予測モデリング」と「時系列解析」について解説します。\n\n### 予測モデリング（Predictive Modeling）\n\n予測モデリングとは、過去の臨床試験データや患者特性（共変量）を基に、将来のイベント発生確率や治療への反応などを統計的・機械学習的に予測する手法の総称です。例えば、ある患者が特定の新薬を投与された際に、病状が悪化するリスクや、特定の副作用を発現する確率を予測するといったケースが挙げられます。\n\n*   **例1：疾患の進行予測**\n    *   糖尿病患者のHbA1c値の推移から、将来の合併症（腎症、網膜症など）発症リスクを予測。\n*   **例2：治療効果の反応予測**\n    *   がん患者の遺伝子プロファイルやバイオマーカーレベルから、特定の抗がん剤が奏功するかどうかを予測。\n*   **例3：イベント発生までの時間予測**\n    *   心疾患患者において、心血管イベント（心臓発作、脳卒中など）が発生するまでの時間を予測する生存時間解析。\n\nこれらの予測モデルは、患者の層別化（サブグループ解析）、適応的デザイン（Adaptive Design）による試験プロトコルの最適化、早期終了基準の検討などに活用され、効率的かつ倫理的な臨床試験の実施をサポートします。R言語は、多種多様な予測モデル（線形回帰、ロジスティック回帰、Cox比例ハザードモデル、機械学習モデルなど）を構築するための豊富なパッケージ群を提供しており、複雑なモデリングにも柔軟に対応できます。\n\n### 時系列解析（Time Series Analysis）\n\n時系列解析とは、時間経過とともに繰り返し測定されるデータ（時系列データ）のパターンやトレンド、季節性、周期性などを分析し、将来の値を予測したり、変動要因を特定したりする統計的手法です。臨床試験においては、患者のバイタルサイン（血圧、心拍数など）、検査値（肝機能値、腎機能値など）、バイオマーカー（炎症マーカー、薬物濃度など）の経時的な変化を分析する際に頻繁に用いられます。\n\n*   **例1：薬物動態（PK）データの解析**\n    *   血中薬物濃度が時間とともにどのように変化するかをモデル化し、適切な投与量を決定。\n*   **例2：疾患活動性のモニタリング**\n    *   関節リウマチ患者の疾患活動性スコア（例: DAS28）の経時的変化を追跡し、治療効果を評価。\n*   **例3：安全性シグナルの検出**\n    *   特定の検査値の異常なトレンドやスパイクを早期に検出し、安全性上の懸念を特定。\n\n時系列解析は、治療効果の持続性評価、安全性評価における異常値の検出、投与設計の最適化などに寄与します。R言語の`forecast`や`lme4`といったパッケージは、ARIMAモデルや線形混合効果モデルなど、様々な時系列データに適した解析手法を提供し、生物統計家が高い精度でデータを解釈することを可能にします。\n\n### バイオインフォマティクスとの連携\n\nバイオインフォマティクスは、ゲノミクス、プロテオミクス、メタボロミクスといった「オミクスデータ」を情報科学的手法で解析する分野です。R言語はバイオコンダクター（Bioconductor）などのエコシステムを通じて、これらの膨大なバイオインフォマティクスデータを扱うための強力なツールを提供しています。臨床試験において、バイオインフォマティクスの手法で特定されたバイオマーカーは、予測モデリングの重要な説明変数となり、より個別化された医療（Precision Medicine）の実現に不可欠な情報源となります。例えば、遺伝子発現プロファイルから治療反応を予測するモデルを構築する際には、両分野の連携が不可欠です。\n\n## 統計的背景・理論\n\nここでは、臨床試験で頻繁に用いられる予測モデリングと時系列解析の主要な統計的手法について、その背景と理論を解説します。\n\n### 予測モデリングの統計理論\n\n#### 1. ロジスティック回帰モデル (Logistic Regression Model)\n\n二値の結果変数（例: イベント発生/非発生、治療奏功/非奏功）を予測する際に用いられます。イベント発生の確率を予測するために、ロジット関数を用いて線形予測子を変換します。\n\n$P(Y=1|X) = \\\\frac{1}{1 + e^{-(\\\\beta_0 + \\\\beta_1 X_1 + \\\\dots + \\\\beta_p X_p)}}$\n\nここで、$P(Y=1|X)$ は共変量 $X$ が与えられたときのイベント発生確率、$\\beta_i$ は回帰係数です。オッズ比（Odds Ratio）を直接的に解釈できるため、臨床的な解釈が容易です。\n\n#### 2. Cox比例ハザードモデル (Cox Proportional Hazards Model)\n\nイベント発生までの時間（生存時間）を分析する際に用いられます。患者の共変量がハザード（単位時間あたりにイベントが発生する瞬間的な確率）に与える影響を評価します。特徴は、ベースラインハザード関数 $h_0(t)$ を特定せず、共変量の効果のみを推定するセミパラメトリックモデルである点です。\n\n$h(t|X) = h_0(t) \\\\exp(\\\\beta_1 X_1 + \\\\dots + \\\\beta_p X_p)$\n\nここで、$h(t|X)$ は共変量 $X$ が与えられた時点 $t$ でのハザード、$h_0(t)$ はベースラインハザード関数、$\\exp(\\\\beta_i)$ はハザード比（Hazard Ratio）を示します。生存時間解析は、新薬の有効性評価において主要な解析手法の一つです。\n\n#### 3. 機械学習アプローチ\n\n近年、臨床統計分野でもランダムフォレスト（Random Forest）、勾配ブースティング（Gradient Boosting Machines; GBM）、サポートベクターマシン（Support Vector Machines; SVM）などの機械学習手法が注目されています。これらの手法は、複雑な非線形関係や多数の共変量を持つデータに対して高い予測性能を発揮しますが、モデルの解釈性（なぜそのような予測になったのか）が課題となることがあります。SHAP値やLIMEなどの説明可能なAI（XAI）手法と組み合わせることで、臨床的な洞察を得る試みが進んでいます。\n\n### 時系列解析の統計理論\n\n#### 1. 線形混合効果モデル (Linear Mixed-Effects Model; LMEM)\n\n臨床試験では、同じ患者から異なる時点で繰り返し測定されるデータ（反復測定データ）が頻繁に発生します。線形混合効果モデルは、このようなデータ構造に適しており、個体内の相関（同じ患者の測定値は相関する）と個体間の異質性（患者によってベースライン値や反応が異なる）を同時に考慮できる柔軟なモデルです。\n\n一般的に、$Y_{ij} = (\\beta_0 + b_{0i}) + (\\beta_1 + b_{1i}) \\text{Time}_{ij} + \\epsilon_{ij}$\n\nここで、$Y_{ij}$ は $i$ 番目の患者の $j$ 時点での測定値、$Time_{ij}$ は $j$ 時点、$b_{0i}$ と $b_{1i}$ は $i$ 番目の患者固有のランダム切片およびランダム傾き（これらが患者間の異質性を表現）、$\\epsilon_{ij}$ は残差誤差です。ランダム効果（$b$）と固定効果（$\\beta$）を分離して推定することで、より適切な治療効果や時間推移を評価できます。\n\n#### 2. 自己回帰移動平均モデル (ARIMAモデル)\n\nARIMA（Autoregressive Integrated Moving Average）モデルは、単一の時系列データにおいて、過去の値と過去の予測誤差の両方を用いて将来の値を予測するモデルです。自己回帰（AR）成分は過去の観測値への依存を、移動平均（MA）成分は過去の予測誤差への依存を表します。差分（I）を取ることで、非定常な時系列データを定常化し、分析を可能にします。\n\n$Y_t = c + \\\\phi_1 Y_{t-1} + \\\\dots + \\\\phi_p Y_{t-p} + \\\\theta_1 \\\\epsilon_{t-1} + \\\\dots + \\\\theta_q \\\\epsilon_{t-q} + \\\\epsilon_t$\n\nこれはAR(p)MA(q)モデルの簡略形であり、より複雑なパターンを持つ時系列データの分析に活用されます。ただし、臨床試験データのように複数の患者からの時系列データを扱う場合は、LMEMのような階層モデルがより適していることが多いです。\n\n## SAS/Rコード実装\n\nここでは、R言語（特に`tidyverse`, `admiral`, `rtables`パッケージ）とSASを用いた、予測モデリング（Cox回帰）と時系列解析（線形混合効果モデル）の実装例を紹介します。ADaMデータセットの操作例も盛り込みます。\n\n### サンプルデータの生成（R）\n\nまず、仮想のADaM（Analysis Data Model）ライクなデータセットをRで生成します。今回は、主要なADaMデータセットである`ADSL` (Subject-Level Analysis Dataset) と `ADTTE` (Time-to-Event Analysis Dataset)、そして時系列バイオマーカーデータとして`ADLB` (Laboratory Analysis Dataset) を想定します。\n\n```R\n# 必要なパッケージのインストールと読み込み\n# install.packages(c(\"tidyverse\", \"survival\", \"lme4\", \"rtables\", \"admiral\"))\nlibrary(tidyverse)\nlibrary(survival) # Cox回帰用\nlibrary(lme4)     # 線形混合効果モデル用\nlibrary(rtables)  # レポートテーブル作成用\nlibrary(admiral)  # ADaMデータセット生成補助用\n\n# --- 1. ADSL (Subject-Level Analysis Dataset) 仮想データの生成 ---\nset.seed(123) # 再現性のためシード固定\nn_subjects <- 100 # 被験者数\n\nADSL <- tibble(\n  USUBJID = paste0(\"SUBJ-\", str_pad(1:n_subjects, 3, pad = \"0\")),\n  SITEID = sample(paste0(\"SITE-\", 1:10), n_subjects, replace = TRUE),\n  TRT01A = sample(c(\"Placebo\", \"Drug A\"), n_subjects, replace = TRUE, prob = c(0.5, 0.5)),\n  SEX = sample(c(\"M\", \"F\"), n_subjects, replace = TRUE, prob = c(0.5, 0.5)),\n  AGE = sample(20:70, n_subjects, replace = TRUE),\n  RACE = sample(c(\"Asian\", \"Caucasian\", \"Other\"), n_subjects, replace = TRUE, prob = c(0.4, 0.5, 0.1))\n) %>%\n  mutate(TRTP = TRT01A) # TRTPは治験薬投与群 (Treated Group)\n\nprint(ADSL)\n\n# --- 2. ADTTE (Time-to-Event Analysis Dataset) 仮想データの生成 ---\n# admiralパッケージの関数を使って、ADSLからADTTEを作成するプロセスを模倣\n# derive_vars_event_flagなどを使ってイベントフラグや最終観測日などを導出\n\n# 簡易的なADTTEデータ生成（イベント発生と追跡期間）\nADTTE <- ADSL %>%\n  mutate(\n    # イベント発生までの時間 (日)\n    AVAL = rgamma(n_subjects, shape = ifelse(TRTP == \"Drug A\", 8, 5), rate = 0.1), \n    # イベントフラグ (0 = censored, 1 = event)\n    CNSR = rbinom(n_subjects, 1, prob = ifelse(TRTP == \"Drug A\", 0.2, 0.4)) \n  ) %>%\n  # イベント発生までの時間と打ち切り時間を比較し、最小値を取る\n  mutate(\n    ADT = round(AVAL * 30), # 日数に変換\n    CNSR = ifelse(ADT > 365, 0, CNSR), # 1年で打ち切り\n    ADT = pmin(ADT, 365) # 最大追跡期間を365日とする\n  ) %>%\n  # derive_vars_event_flag()の概念を模倣\n  mutate(\n    # AVALがイベント発生までの時間、CNSRが打ち切りフラグと解釈\n    # ADTTE_ANL_EVENT = CNSR # 例: admiralではイベントフラグを導出する\n  ) %>% \n  select(USUBJID, TRTP, AVAL = ADT, CNSR)\n\nprint(ADTTE)\n\n# --- 3. ADLB (Laboratory Analysis Dataset) 仮想データの生成 ---\n# 患者ごとのバイオマーカー経時データ\nADLB <- ADSL %>%\n  select(USUBJID, TRTP) %>%\n  rowwise() %>%\n  # 複数時点で測定値を生成\n  mutate( \n    AVISIT = list(paste0(\"Week \", c(0, 4, 8, 12, 24, 36, 48))),\n    AVISITN = list(c(0, 4, 8, 12, 24, 36, 48))\n  ) %>%\n  unnest(cols = c(AVISIT, AVISITN)) %>%\n  mutate(\n    # バイオマーカー値の変動（治療群間で異なるトレンド）\n    AVAL = rnorm(1, mean = 50 - AVISITN * 0.5 * (TRTP == \"Drug A\") + AVISITN * 0.2 * (TRTP == \"Placebo\"), sd = 5),\n    PARAM = \"BioMarker X\",\n    PARAMCD = \"BM_X\"\n  ) %>%\n  ungroup() %>% \n  # 少しだけ欠損値を混ぜる\n  sample_n(size = nrow(.), replace = FALSE) %>%\n  slice_head(prop = 0.98) # 2%の欠損\n\nprint(ADLB)\n\n# admiralでのADaM作成の概念\n# admiralは、SDTMからADaMを効率的に生成するための関数群を提供します。\n# 例えば、ADTTEの作成には以下のような関数を使用します。\n# ADTTE_derived <- derive_vars_event_flag(ADTTE, \n#   dataset_name = \"ADTTE\", \n#   event_var = AVAL, \n#   event_condition = CNSR == 1,\n#   ...)\n# これらの関数群は、臨床試験データハンドリングの標準化と自動化を強力に推進します。\n\n```\n\n### 予測モデリング：Cox比例ハザードモデル（R）\n\n`ADTTE`データセットを用いて、治療群（`TRTP`）がイベント発生までの時間に与える影響をCoxモデルで解析します。`survival`パッケージの`Surv()`関数と`coxph()`関数を使用します。\n\n```R\n# Cox比例ハザードモデルのR実装\n\n# 1. 生存オブジェクトの作成\n# Surv(時間, イベントフラグ) で生存時間を定義します。\n# イベントフラグは0=打ち切り, 1=イベント発生です。\nSurv_obj <- Surv(time = ADTTE$AVAL, event = ADTTE$CNSR)\n\n# 2. Cox比例ハザードモデルの構築\n# TRTP (治療群) を説明変数としてモデルを構築します。\nmodel_cox <- coxph(Surv_obj ~ TRTP, data = ADTTE)\n\n# 3. モデル結果の表示\nsummary(model_cox)\n\n# --- rtablesを用いた結果表示の例 ---\n# rtablesは、臨床試験の報告書で使用されるような形式のテーブルをRで簡単に作成できるパッケージです。\n# ここでは、簡潔にハザード比と95%信頼区間を表示する例を示します。\n\n# モデルから結果を抽出\ncox_summary <- as.data.frame(summary(model_cox)$conf.int)\n\nhazard_ratio <- round(cox_summary[\"TRTPDrug A\", \"exp(coef)\"], 2)\nlower_ci <- round(cox_summary[\"TRTPDrug A\", \"lower .95\"], 2)\nupper_ci <- round(cox_summary[\"TRTPDrug A\", \"upper .95\"], 2)\np_value <- round(summary(model_cox)$coefficients[\"TRTPDrug A\", \"Pr(>|z|)\"], 3)\n\n# rtablesで報告書用テーブルを作成\nbuild_table(ADSL, \n  # TRTPごとの患者数とイベント数を集計\n  header_row(\"治療群ごとのCoxモデル解析結果\"),\n  split_cols_by(\"TRTP\"),\n  analyze(\"USUBJID\", \n          function(x, .ref_group) {\n            in_ref <- x == .ref_group\n            overall_n <- length(x)\n            ref_n <- sum(in_ref)\n            trt_n <- overall_n - ref_n\n            \n            rrow(\"症例数 (N)\", c(ref_n, trt_n))\n          },\n          custom_col_stats_fn = function(x, .var) { # ダミー関数。実際にはADSLから直接取得\n            if (.var == \"USUBJID\") { \n               c(sum(ADSL$TRTP == \"Placebo\"), sum(ADSL$TRTP == \"Drug A\")) \n            } else { NA }\n          }\n          \n  ),\n  analyze(\"USUBJID\", \n          function(x, .ref_group) {\n            rrow(\"ハザード比 (95% CI)\", \n                 sprintf(\"%.2f (%.2f - %.2f)\", hazard_ratio, lower_ci, upper_ci), \n                 format = \"xx.xx (xx.xx - xx.xx)\")\n          },\n          custom_col_stats_fn = function(x, .var) {\n            if (.var == \"USUBJID\") {\n              c(\"Reference\", sprintf(\"%.2f (%.2f - %.2f)\", hazard_ratio, lower_ci, upper_ci))\n            } else { NA }\n          }\n  ),\n  analyze(\"USUBJID\", \n          function(x, .ref_group) {\n            rrow(\"p値\", sprintf(\"%.3f\", p_value), format = \"x.xxx\")\n          },\n          custom_col_stats_fn = function(x, .var) {\n            if (.var == \"USUBJID\") {\n              c(\" \", sprintf(\"%.3f\", p_value))\n            } else { NA }\n          }\n  )\n) %>%\n  build() # テーブル構築\n```\n\n**結果の解釈**: `summary(model_cox)`の結果から、`TRTPDrug A`の`exp(coef)`がハザード比（Hazard Ratio; HR）を示します。例えば、HRが0.75であれば、治験薬A群はプラセボ群と比較してイベント発生のリスクが25%減少したことを意味します。95%信頼区間が1を含まなければ統計的に有意であると判断します。\n\n### 時系列解析：線形混合効果モデル（R）\n\n`ADLB`データセットを用いて、バイオマーカー`BM_X`の経時変化に対する治療群（`TRTP`）の影響を線形混合効果モデルで解析します。`lme4`パッケージの`lmer()`関数を使用します。\n\n```R\n# 線形混合効果モデルのR実装\n\n# 1. モデルの構築\n# AVAL (バイオマーカー値) を目的変数とし、\n# AVISITN (訪問番号、時間効果)、TRTP (治療群)、TRTPとAVISITNの交互作用を固定効果とします。\n# (1|USUBJID) は、被験者ごとに切片が異なる（ランダム切片）ことを意味します。\n# (AVISITN|USUBJID) は、被験者ごとに傾きも異なる（ランダム傾き）ことを意味します。\n\nmodel_lmer <- lmer(AVAL ~ AVISITN * TRTP + (AVISITN|USUBJID), data = ADLB)\n\n# 2. モデル結果の表示\nsummary(model_lmer)\n\n# 3. 推定された固定効果の表示\nfixef(model_lmer)\n\n# 4. 推定されたランダム効果の分散成分の表示\nVarCorr(model_lmer)\n\n# ADLBデータセットの概要テーブル (rtablesの活用例)\nbuild_table(ADLB, \n  header_row(\"バイオマーカーXのベースラインおよび週次要約統計量\"),\n  split_cols_by(\"TRTP\"),\n  split_rows_by(\"AVISIT\", page_by = FALSE) %>%\n    summarize_row_groups(), # グループごとの要約行を表示\n  analyze(\"AVAL\", \n          stats = c(\"n\", \"mean\", \"sd\", \"min\", \"max\"),\n          format = list(n = \"xx\", mean = \"xx.x\", sd = \"xx.x\", min = \"xx.x\", max = \"xx.x\"))\n) %>% \n  build()\n```\n\n**結果の解釈**: `summary(model_lmer)`の結果から、固定効果（Fixed Effects）の`TRTPDrug A`は治療群間の平均的な差、`AVISITN`は時間経過に伴うバイオマーカーの変化、`AVISITN:TRTPDrug A`はその時間変化が治療群間で異なるかどうかを示します。ランダム効果（Random Effects）は、被験者ごとのバイオマーカー値の変動パターンが異なる度合いを示し、個々の患者の多様性をモデルに組み込むことができます。\n\n### SASコード実装（比較用）\n\n同じ解析をSASで行う場合のコード例も示します。SASは製薬業界で長年使われてきた信頼性の高いツールです。特にデータハンドリングと安定したプロシージャが強みです。\n\n```SAS\n/* --- 1. サンプルデータ生成 (SAS) --- */\n/* ADSLデータセット */\ndata ADSL;\n  call streaminit(123);\n  do i = 1 to 100;\n    USUBJID = catt('SUBJ-', put(i, z3.));\n    SITEID = catt('SITE-', ceil(rand('UNIFORM')*10));\n    if rand('UNIFORM') < 0.5 then TRT01A = 'Placebo'; else TRT01A = 'Drug A';\n    if rand('UNIFORM') < 0.5 then SEX = 'M'; else SEX = 'F';\n    AGE = floor(rand('UNIFORM') * 51) + 20; /* 20-70歳 */\n    race_val = rand('UNIFORM');\n    if race_val < 0.4 then RACE = 'Asian';\n    else if race_val < 0.9 then RACE = 'Caucasian';\n    else RACE = 'Other';\n    TRTP = TRT01A;\n    output;\n  end;\nrun;\n\n/* ADTTEデータセット */\ndata ADTTE;\n  set ADSL;\n  call streaminit(123);\n  if TRTP = 'Drug A' then AVAL = rand('GAMMA', 8) / 0.1;\n  else AVAL = rand('GAMMA', 5) / 0.1;\n  if TRTP = 'Drug A' then CNSR = rand('BERNOULLI', 0.2);\n  else CNSR = rand('BERNOULLI', 0.4);\n  \n  ADT = round(AVAL * 30);\n  if ADT > 365 then do; CNSR = 0; ADT = 365; end;\n  AVAL = ADT;\n  drop i race_val;\nrun;\n\n/* ADLBデータセット */\ndata ADLB;\n  set ADSL;\n  call streaminit(123);\n  do AVISITN = 0, 4, 8, 12, 24, 36, 48;\n    AVISIT = catt('Week ', AVISITN);\n    AVAL_mean = 50 - AVISITN * 0.5 * (TRTP = 'Drug A') + AVISITN * 0.2 * (TRTP = 'Placebo');\n    AVAL = AVAL_mean + rand('NORMAL', 0, 5);\n    PARAM = 'BioMarker X';\n    PARAMCD = 'BM_X';\n    if rand('UNIFORM') > 0.98 then delete; /* 2%欠損 */\n    output;\n  end;\n  drop i race_val AVAL_mean;\nrun;\n\n/* --- 2. 予測モデリング：Cox比例ハザードモデル (SAS) --- */\nproc phreg data=ADTTE;\n  class TRTP / param=ref ref='Placebo'; /* 治療群を変数として指定し、参照群をPlaceboに設定 */\n  model AVAL*CNSR(0) = TRTP; /* AVAL:イベント発生時間, CNSR:イベントフラグ(0=打ち切り) */\n  hazardratio TRTP; /* ハザード比を計算 */\nrun;\n\n/* --- 3. 時系列解析：線形混合効果モデル (SAS) --- */\nproc mixed data=ADLB;\n  class USUBJID TRTP AVISITN; /* カテゴリ変数指定 */\n  model AVAL = AVISITN TRTP AVISITN*TRTP / s ddfm=kr; /* 固定効果モデル */\n  random AVISITN / subject=USUBJID type=un g; /* ランダム効果 (被験者ごとの切片とAVISITNの傾き) */\n  repeated AVISITN / subject=USUBJID type=ar(1); /* 反復測定内の相関構造 (AR(1)を指定) */\n  lsmeans TRTP*AVISITN / adjust=tukey plots=meanplot(cl); /* 調整済み平均値とプロット */\nrun;\n```\n\n**SASコードの解説**: `PROC PHREG`はCox比例ハザードモデルを、`PROC MIXED`は線形混合効果モデルを実装するための主要なプロシージャです。`CLASS`ステートメントでカテゴリ変数を指定し、`MODEL`ステートメントで固定効果、`RANDOM`ステートメントでランダム効果を定義します。`REPEATED`ステートメントは反復測定データにおける残差の相関構造を指定する際に非常に強力です。\n\n## 実務での活用場面\n\n予測モデリングと時系列解析は、臨床試験の各フェーズで多岐にわたる実用的な応用が可能です。R言語の活用は、これらの場面でより柔軟かつ迅速な解析を可能にします。\n\n1.  **患者層別化とサブグループ解析の最適化**\n    *   **予測モデリング**: 患者のベースライン特性（遺伝子情報、バイオマーカー、人口統計学的因子など）を用いて、特定の治療薬に対する反応性が高い患者群を事前に予測します。これにより、臨床試験のデザイン段階でターゲット患者群を絞り込んだり、解析段階で治療効果が顕著なサブグループを特定したりすることが可能になります。\n    *   **R言語の利点**: `glmnet`（正則化回帰）、`ranger`（ランダムフォレスト）、`xgboost`（勾配ブースティング）など、様々な機械学習アルゴリズムをRで利用し、複雑な患者層別化モデルを構築できます。\n\n2.  **早期終了基準の検討と適応的デザイン**\n    *   **予測モデリング**: 試験途中のデータを用いて、最終的な治療効果や安全性イベントの発生を予測し、試験の早期終了やサンプルサイズの再推定など、適応的デザインの意思決定をサポートします。これにより、無駄なリソースを削減し、患者への負担を軽減できます。\n    *   **R言語の利点**: `RBesT`（ベイズ統計）、`rpact`（適応的デザイン）などのパッケージは、複雑な適応的デザインのシミュレーションと実装を支援します。\n\n3.  **バイオマーカー探索と評価**\n    *   **時系列解析・予測モデリング**: 血液や組織から得られるバイオマーカー値の経時変化を時系列解析で評価し、疾患の進行や治療効果との関連を調べます。また、これらのバイオマーカーが治療反応の予測因子となりうるかを予測モデリングで検証します。\n    *   **R言語の利点**: `limma`（差次的発現解析）、`survival`（生存解析）など、バイオインフォマティクスと生物統計学の両分野で強力なパッケージがRには豊富にあり、オミクスデータから臨床エンドポイントへの橋渡しをスムーズに行えます。\n\n4.  **投与量最適化のためのPK/PDモデリング**\n    *   **時系列解析**: 薬物動態（Pharmacokinetics; PK）データ（血中薬物濃度）や薬力学（Pharmacodynamics; PD）データ（薬効指標）の経時的変化を解析し、最適な投与量・投与間隔を決定します。線形混合効果モデルや非線形混合効果モデルが活用されます。\n    *   **R言語の利点**: `nlme`, `lme4`は線形・非線形混合効果モデルを柔軟に扱え、`mrgsolve`などのパッケージはPK/PDシミュレーションをサポートします。\n\n5.  **リアルワールドエビデンス（RWE）と長期予後予測**\n    *   **予測モデリング・時系列解析**: 電子カルテやレジストリデータなどのリアルワールドデータ（RWD）を用いたRWE研究において、患者の長期的な予後や医療経済的アウトカムを予測します。時系列データから、介入後の患者の状態変化を長期的に追跡・予測することが可能です。\n    *   **R言語の利点**: 大規模なRWDのハンドリングには`data.table`や`dplyr`のような効率的なデータ操作パッケージが不可欠です。また、因果推論のための`CausalImpact`などのパッケージも活用できます。\n\nこれらの活用場面において、R言語の柔軟性と拡張性は、製薬企業やCROの生物統計家にとって非常に強力なツールとなり、より高度な解析と効率的な意思決定を可能にします。特に{{internal_link:臨床試験における統計的解析計画}}の策定段階からRの活用を検討することで、解析の透明性と再現性を高めることができます。\n\n## 海外の最新動向\n\nR言語は、臨床統計およびライフサイエンス分野において、海外の主要なコミュニティや規制当局でもその重要性が増しています。PSI (Statisticians in the Pharmaceutical Industry)、ASA (American Statistical Association)、PHUSE (Pharmaceutical Users Software Exchange) などの国際的な団体がRの活用を積極的に推進しています。\n\n1.  **Rethink Clinical Trials InitiativeとRの活用**\n    *   近年、製薬業界では「Rethink Clinical Trials」のようなイニシアチブが推進され、臨床試験の効率化、コスト削減、迅速化が求められています。その中で、Rはオープンソースであり、最新の統計手法や機械学習アルゴリズムを迅速に取り入れられることから、革新的な解析ツールの中心となっています。\n\n2.  **FDA/EMAとリアルワールドエビデンス（RWE）**\n    *   米国食品医薬品局（FDA）や欧州医薬品庁（EMA）は、医薬品の承認プロセスにおいてリアルワールドエビデンス（RWE）の活用を推奨しています。RWEの解析には、大規模で複雑なデータセットを扱う高度な統計的手法や機械学習が不可欠であり、R言語がその主要なツールとして位置づけられています。\n    *   **参考**: FDA Guidances: Real-World Evidence [https://www.fda.gov/drugs/guidance-compliance-regulatory-information/real-world-evidence](https://www.fda.gov/drugs/guidance-compliance-regulatory-information/real-world-evidence)\n\n3.  **Clinical Trial用Rパッケージのエコシステム拡大**\n    *   `admiral` (ADaMデータセット生成), `rtables` (臨床試験報告書用テーブル作成), `Tplyr` (TLF自動生成), `tern` (探索的解析テーブル) など、特定の臨床試験解析のワークフローに特化したRパッケージが活発に開発・維持されています。これらは、SASベースのワークフローに匹敵する、あるいはそれ以上の効率性と柔軟性を提供することを目指しています。PHUSEやR Consortiumは、これらのパッケージの標準化と普及を支援しています。\n    *   これらのパッケージ群は、SDTM（Standard Data Tabulation Model）からADaMを生成し、そのADaMデータを使って解析・結果報告までをRのみで完結させる「end-to-end」のワークフローを可能にします。これにより、SASへの依存度を低減し、より柔軟な解析環境を実現できます。\n\n4.  **ベイズ統計と適応的デザインの浸透**\n    *   PSIやASAのカンファレンスでは、ベイズ統計を用いた予測モデリングや適応的デザインに関する発表が毎年多数を占めます。Rには`JAGS`, `Stan`（ベイジアン推論）、`RBesT`（ベイズ統計的最適化）など、高度なベイズ解析ツールが充実しており、これらの最先端手法を臨床試験に適用する動きが加速しています。\n\n5.  **ICH E9(R1) と estimands**\n    *   国際調和会議（ICH）のガイドラインE9(R1)「Addendum on Estimands and Sensitivity Analysis in Clinical Trials」は、臨床試験における解析の目的（estimand）を明確化することの重要性を強調しています。予測モデリングや時系列解析は、これらのestimandに基づいた感度分析やシナリオ分析を行う上で不可欠なツールとして位置づけられています。Rは、複雑なデータ生成メカニズムやモデルをシミュレートするのに非常に適しており、estimandの文脈での解析に貢献します。\n\n海外の専門家たちは、Rのオープンソース性、最新手法への対応力、そして活発なコミュニティによるサポートを高く評価しており、日本の臨床統計担当者もこれらの動向を積極的に取り入れ、Rのスキルを磨くことが求められています。特に、{{internal_link:SASからRへの移行ガイド}}のようなリソースも参考にしながら、自社の業務にRを組み込む検討を進めることが重要です。\n\n## よくある質問（FAQ）\n\n### Q1: Rは製薬業界でSASの代替になりますか？\n\nA1: 完全な代替というよりも、補完的な関係として進化しています。多くの製薬企業やCROでは、規制当局への提出要件や既存のインフラからSASが依然として主流ですが、探索的解析、最新の統計手法の導入、機械学習、そしてADaM生成・報告書作成の効率化といった領域でRの採用が急速に進んでいます。特に`admiral`や`rtables`のような臨床試験に特化したRパッケージの登場により、Rだけで一連の解析を完結させる「end-to-end」ソリューションが現実味を帯びてきています。今後は、両者を使い分けるハイブリッドな環境が一般的になると考えられます。\n\n### Q2: 予測モデルの解釈性はどう担保しますか？\n\nA2: 機械学習ベースの予測モデルは「ブラックボックス」と批判されることがありますが、その解釈性を高めるための手法が発展しています。SHAP (SHapley Additive exPlanations) 値やLIME (Local Interpretable Model-agnostic Explanations) などの説明可能なAI (XAI) 手法を用いることで、各予測にどの変数がどれだけ寄与したかを定量的に評価できます。Rには`DALEX`や`iml`といったパッケージがあり、これらのXAI手法を容易に実装できます。臨床的な専門知識と組み合わせて、モデルの予測が妥当であるかを多角的に検証することが重要です。\n\n### Q3: 時系列解析で欠損データはどう扱いますか？\n\nA3: 時系列データにおける欠損値は一般的な問題です。単純な欠損値除去はバイアスを生む可能性があるため、適切な対処が必要です。主な方法としては、多重代入法（Multiple Imputation; MI）、LOCF（Last Observation Carried Forward）、または線形混合効果モデルのように欠損値を直接扱える統計モデルを使用することが挙げられます。多重代入法は、複数の補完されたデータセットを作成し、それぞれで解析を行った後、結果を統合する方法で、Rの`mice`パッケージなどで実装できます。どの方法を選ぶかは、欠損のメカニズム（MCAR, MAR, MNAR）と解析の目的に応じて慎重に検討する必要があります。\n\n### Q4: `admiral`パッケージの学習コストは高いですか？\n\nA4: `admiral`は、`tidyverse`のエコシステムに基づいているため、既に`dplyr`や`tidyr`などの`tidyverse`の知識がある方にとっては比較的学習しやすいでしょう。しかし、ADaMの仕様（CDISC ADaM IG）と臨床試験のワークフローに関する深い理解が前提となります。パッケージ自体は高機能ですが、提供されるチュートリアルやドキュメントが充実しており、コミュニティも活発です。最初は既存の`admiral`テンプレートを参考にしながら、徐々にカスタマイズしていくのが良い学習方法です。一度習得すれば、ADaMデータセットの生成プロセスを大幅に効率化し、ミスを削減できる強力なツールとなります。\n\n### Q5: バイオインフォマティクスと生物統計の連携はどのように進みますか？\n\nA5: バイオインフォマティクスと生物統計の連携は、精密医療（Precision Medicine）の実現に不可欠です。バイオインフォマティクスが、大量のオミクスデータ（ゲノミクス、プロテオミクスなど）から有望なバイオマーカーやパスウェイを同定するのに対し、生物統計はこれらの候補が臨床アウトカム（疾患進行、治療反応など）と統計的に有意な関連があるか、またその予測能はどの程度かを評価します。両分野の専門家が協力し、データ生成から解析、臨床応用までを一貫して進める「トランスレーショナル・リサーチ」が主流となっています。Rは、`Bioconductor`パッケージ群を通じて、この連携を強力にサポートするプラットフォームです。\n\n## 臨床統計スキルを磨くためのリソース\n\nこの記事の内容をさらに深めるために、以下のリソースが役立ちます。\n\n- **[Amazon 統計学書籍](https://www.amazon.co.jp?tag=musclelove07-22)** - 臨床統計・生物統計の参考書\n- **[Udemy SAS/R講座](https://www.udemy.com)** - 動画で学ぶSAS/R統計プログラミング\n- **[楽天 統計書籍](https://www.rakuten.co.jp)** - 統計学・データサイエンスの参考書\n\n*上記リンクからご利用いただくと、サイト運営の支援になります。*\n\n\n## まとめ\n\n本記事では、R言語が臨床試験における予測モデリングと時系列解析においていかに強力なツールであるか、その統計的背景から具体的なRコードの実装、実務での活用場面、そして海外の最新動向までを包括的に解説しました。\n\nR言語は、`tidyverse`によるデータ操作の効率性、`survival`や`lme4`といった基本的な統計解析パッケージの豊富さ、そして`admiral`や`rtables`といった臨床試験に特化したパッケージ群の進化により、生物統計家にとって不可欠なツールとなっています。特に、ADaMデータセットの生成から、高度な予測モデルの構築、時系列データの詳細な分析、そして最終的な報告書の作成まで、Rのみで一貫したワークフローを構築できることは、業務の効率化と解析の質の向上に大きく貢献します。\n\n製薬業界は、データ駆動型意思決定と個別化医療の時代へと移行しており、R言語を活用した最新の統計解析手法は、新薬開発の成功確率を高め、患者さんにより良い治療を届けるための鍵となります。私たち臨床統計ラボは、今後もR言語と生物統計の最先端情報を日本の臨床統計担当者の皆様にお届けし、日々の業務の一助となることを願っています。\n\nぜひ、この記事を参考に、R言語を用いた予測モデリングと時系列解析を自身の業務に取り入れてみてください。より複雑な解析やRの活用事例については、{{internal_link:Rを用いた統計解析の応用例}}の記事もご参照ください。\n",
  "hero_emoji": "📝",
  "hero_gradient": "135deg",
  "keyword": "R言語, バイオインフォマティクス, 予測モデリング, 時系列解析, ライフサイエンス, 生物統計",
  "category": "R for Clinical Trials",
  "generated_at": "2026-04-04T06:44:00.129329",
  "has_affiliate": true,
  "affiliate_count": 3,
  "eyecatch_url": "https://images.unsplash.com/photo-1611532736597-de2d4265fba3?w=1200&h=630&fit=crop&auto=format&q=80",
  "eyecatch_credit": "Photo from [Unsplash](https://unsplash.com/)"
}