{
  "title": "admiral RパッケージでADaM効率化！臨床試験統計解析の未来",
  "meta_description": "admiral Rパッケージで臨床試験ADaM作成を効率化！SASからの移行、AIプログラミングとの連携、製薬業界での最新動向を解説。RでADaMを作成したい臨床統計家必見。",
  "slug": "admiral-r-package-clinical-trials-adam",
  "tags": [
    "admiral",
    "R",
    "ADaM",
    "臨床統計",
    "製薬企業"
  ],
  "faq": [
    {
      "question": "admiralはSASを完全に置き換えますか？",
      "answer": "現時点では、完全に置き換わるわけではありませんが、多くの場面でSASの代替となり得ます。特にADaM作成やTFL生成など、定型的なプログラミング作業においては、admiralを含むRパッケージがSASよりも効率的で柔軟な選択肢となることが多いです。SASは長年の実績と信頼がありますが、Rはオープンソースとしての柔軟性や最新の統計手法への対応力で優位性を持っています。"
    },
    {
      "question": "admiralパッケージはバリデーションされていますか？",
      "answer": "はい、admiralは`pharmaverse`プロジェクトの一環として、製薬業界の厳しい要件に合致するよう、単体テスト、統合テスト、そしてコミュニティによる広範なレビュープロセスを経て開発・維持されています。これにより、その信頼性と再現性が保証されており、規制当局への提出資料の作成にも利用可能であると広く認識されています。ただし、各企業で利用する際には、内部のバリデーションポリシーに従う必要があります。"
    },
    {
      "question": "admiralを使う最大のメリットは何ですか？",
      "answer": "最大のメリットは、ADaM作成の**標準化と効率化**です。あらかじめ検証された関数群を使うことで、一貫性のある高品質なADaMを迅速に作成できます。また、`tidyverse`との親和性により、直感的で可読性の高いコードを書くことができ、コードレビューやメンテナンスの負担を軽減します。オープンソースであるため、ライセンス費用なしで利用できる点も大きな魅力です。"
    },
    {
      "question": "RでADaMを作成する際の注意点は何ですか？",
      "answer": "主な注意点は、環境構築とバージョン管理です。Rは多様なパッケージが存在するため、プロジェクトごとに必要なパッケージのバージョンを厳密に管理することが重要です。また、Rの学習コストも考慮に入れる必要があります。ただし、一度環境が整えば、その後の作業効率は大幅に向上します。十分な**バリデーション**とドキュメンテーションも不可欠です。"
    },
    {
      "question": "admiralの学習リソースはどこにありますか？",
      "answer": "admiralの公式ウェブサイト（[https://pharmaverse.org/](https://pharmaverse.org/)）が最も良い学習リソースです。チュートリアル、ドキュメンテーション、サンプルコードが豊富に提供されています。また、PHUSEやPSIなどのコミュニティイベントでの発表資料や、GitHubリポジトリも参考になります。Rの基本的な学習は、`tidyverse`の入門書やオンラインコースから始めることをお勧めします。"
    }
  ],
  "content": "# admiral RパッケージでADaM効率化！臨床試験統計解析の未来\n\n![admiral RパッケージでADaM効率化！臨床試験統計解析の未来](https://images.unsplash.com/photo-1542903660-eedba2cda473?w=1200&h=630&fit=crop&auto=format&q=80)\n\n*Photo from [Unsplash](https://unsplash.com/)*\n\n\n## この記事でわかること\n*   **admiral Rパッケージ**が臨床試験のADaM（解析データモデル）作成にどのように貢献するか\n*   SASと比較したRおよびadmiralの**メリットとデメリット**\n*   **実際に動くRコード**で、SDTM（提出用データモデル）からADaMを作成する手順\n*   **製薬業界**における**Rパッケージ**、特にadmiralの最新動向と将来性\n*   **AIプログラミング**時代に臨床統計家が身につけるべきスキル\n\n## 結論から言うと\n**admiral**は、R言語で**臨床試験**の**ADaM**データセット作成を標準化・効率化するための強力な**Rパッケージ**です。製薬業界で主流だったSASから、オープンソースであるRへの移行を加速させ、データ解析の透明性と再現性を高めます。特に、**AIプログラミング**が注目される現代において、Rの柔軟性は統計解析の未来を拓く鍵となるでしょう。\n\n## admiral, Rパッケージ, ADaM, 臨床試験とは？\n\n### ADaM（Analysis Data Model）とは？\n**ADaM**（解析データモデル）とは、CDISC（Clinical Data Interchange Standards Consortium）が定める臨床試験データ標準の一つで、統計解析に直接使用されるデータセットの構造を定義しています。安全性や有効性の解析に特化しており、SDTM（Submission Data Tabulation Model、提出用データモデル）データを基に作成されます。\n\nADaMの主な目的は以下の2点です。\n1.  **Traceability（トレーサビリティ）**：元のSDTMデータ、および解析で使用したアルゴリズムや導出ルールを明確に追跡できるようにすること。\n2.  **Reusability（再利用性）**：同じADaMデータセットが、異なる解析やレポート作成に繰り返し利用できるようにすること。\n\nこれにより、統計解析の再現性が確保され、規制当局（PMDAやFDAなど）によるレビュープロセスが円滑になります。製薬業界では、このADaMの作成は統計プログラマーの重要な業務の一つです。\n\n### admiral Rパッケージとは？\n**admiral**は、R言語でCDISC ADaMデータセットを作成するための専門的な**Rパッケージ**です。`tidyverse`の思想に基づいて設計されており、データ操作の直感性と効率性を追求しています。製薬企業やCRO（医薬品開発業務受託機関）における臨床試験データのハンドリングにおいて、SASに代わるオープンソースソリューションとして急速に注目を集めています。\n\nadmiralは、以下のような特徴を持っています。\n*   **標準化された関数群**：年齢の導出、治療期間の計算、イベント発生日の特定など、ADaM作成で頻繁に必要となる処理が関数として提供されています。\n*   **透明性と再現性**：Rコードとして導出ロジックが明確に残るため、誰でも同じADaMデータセットを再現できます。\n*   **`tidyverse`との親和性**：`dplyr`や`tidyr`などの人気パッケージとシームレスに連携し、一貫したコーディングスタイルでデータ操作が可能です。\n*   **`pharmaverse`エコシステムの一部**：`admiral`は、臨床試験に特化したRパッケージ群`pharmaverse`の中核をなすパッケージの一つであり、`rtables`（表作成）、`tern`（グラフ作成）などと連携して、ADaM作成から解析、レポート作成までを一貫してRで行うことを可能にします。\n\n### AIプログラミングと製薬業界におけるRの役割\n近年、**AIプログラミング**は**製薬業界**においてもその重要性を増しています。創薬研究、臨床試験の最適化、リアルワールドデータ解析など、多岐にわたる分野でAI/機械学習の活用が進んでいます。Rは統計解析に特化した言語であるだけでなく、機械学習ライブラリが豊富に揃っており、柔軟なデータ処理能力と可視化機能が強みです。\n\n`admiral`のようなRパッケージを活用して解析基盤をRに移行することは、将来的なAI/機械学習モデルの臨床試験データへの適用を容易にし、より高度で効率的なデータ駆動型研究開発への道を開きます。\n\n## 統計的背景・理論\n\n**ADaM**の設計は、単にデータを集めるだけでなく、統計的解析の信頼性と効率性を保証する上で極めて重要です。その根底には、解析の**妥当性（validity）**と**再現性（reproducibility）**があります。\n\n*   **妥当性**：統計解析が、臨床試験の目的に合致し、適切な手法で実施されていることを意味します。ADaMは、統計解析計画書（SAP: Statistical Analysis Plan）に記述された解析を直接実行できる形にデータを準備することで、この妥当性を支えます。例えば、プロトコルで定義された解析対象集団（Analysis Set）のデータフラグ（e.g., `ITTFL`, `SAFFL`）などが、ADaMで明確に導出されます。\n\n*   **再現性**：同じデータ、同じ解析手順が与えられれば、誰でも同じ解析結果が得られることを意味します。ADaMは、導出変数のアルゴリズム（例：年齢の計算式、最終評価日の定義など）を標準化し、メタデータに記録することで、この再現性を保証します。これにより、規制当局の審査官が解析結果を独立に検証することが容易になります。\n\nADaMの主要な構造であるADSL（Analysis Data Subject Level）データセットは、被験者レベルの情報を集約したもので、ほとんど全ての解析データセットのベースとなります。ここでは、各被験者のランダム化情報、治療群、年齢、性別、人種、ベースライン情報などが格納されます。これらの変数を正確に導出することが、統計解析の第一歩となります。\n\n例えば、年齢（`AGE`）の導出には、通常、試験開始日（`TRTSTRDT`）と誕生日（`BRTHDT`）から算出しますが、その際の単位（年、月）や小数点以下の処理は、標準的なルールに従う必要があります。\n\n\\\\(AGE = \\\\lfloor (TRTSTRDT - BRTHDT) / 365.25 \\\\rfloor\\\\)\n\n`admiral`パッケージは、このような一般的なADaM導出ロジックを、あらかじめ検証された関数として提供することで、臨床統計家がこれらの統計的原則を容易に実装できるように支援します。\n\n## SAS/Rコード実装\n\nここでは、SDTMのサンプルデータからADaMのADSL（Analysis Data Subject Level）データセットを作成する簡単な例を、SASとR（admiral）で比較しながら見ていきましょう。\n\n### SASコード例\n\nまず、SASでSDTM風のデータを生成し、簡単なADSLを作成する例です。伝統的な製薬業界で使われてきた方法のイメージです。\n\n```sas\n/* Sample SDTM-like Data (DM - Demographics) */\ndata sdtm.dm;\n  length USUBJID $20 TRT01A $20 SEX $10 RACE $20; \n  infile datalines dsd;\n  input USUBJID BRTHDT YYYYMMDD8. TRT01A TRT01P SEX RACE ACTARM STARTDT YYYYMMDD8.;\n  format BRTHDT YYYYMMDD8. STARTDT YYYYMMDD8.;\n  datalines;\n\"001-001\",19850115,\"Placebo\",\"Placebo\",\"Male\",\"White\",\"Placebo\",20230301\n\"001-002\",19780620,\"Drug A\",\"Drug A\",\"Female\",\"Asian\",\"Drug A\",20230305\n\"001-003\",19921101,\"Drug A\",\"Drug A\",\"Male\",\"Black\",\"Drug A\",20230310\n\"001-004\",19650308,\"Placebo\",\"Placebo\",\"Female\",\"White\",\"Placebo\",20230315\n\"001-005\",19800925,\"Drug A\",\"Drug A\",\"Male\",\"Asian\",\"Drug A\",20230320\n;\nrun;\n\n/* Create ADSL from DM */\ndata adam.adsl;\n  set sdtm.dm;\n  /* Derive AGE */\n  AGE = int((startdt - brthdt) / 365.25);\n  /* Derive Baseline Treatment */\n  TRT01A = ACTARM;\n  label AGE='Age at start of study (years)';\n  label TRT01A='Actual Treatment Arm';\nrun;\n\nproc print data=adam.adsl;\n  var USUBJID AGE TRT01A SEX RACE;\n  title 'SAS-generated ADSL Data';\nrun;\n\n```\n\n### Rコード例（admiralを活用）\n\n次に、同じSDTM風のデータから`admiral`を使用してADSLを作成する例です。`tidyverse`のパイプ演算子（`%>%`）を使って、データの流れを直感的に表現します。\n\n```R\n# 必要なパッケージをロード\nlibrary(dplyr)\nlibrary(admiral)\nlibrary(lubridate) # 日付操作に便利\n\n# 1. サンプルSDTM風データ (DM) の生成\ndm <- tibble::tribble(\n  ~USUBJID,   ~BRTHDT,      ~TRT01A,    ~TRT01P,    ~SEX,     ~RACE,   ~ACTARM,    ~STARTDT,\n  \"001-001\",  \"1985-01-15\", \"Placebo\",    \"Placebo\",    \"Male\",   \"White\",   \"Placebo\",  \"2023-03-01\",\n  \"001-002\",  \"1978-06-20\", \"Drug A\",     \"Drug A\",     \"Female\", \"Asian\",   \"Drug A\",   \"2023-03-05\",\n  \"001-003\",  \"1992-11-01\", \"Drug A\",     \"Drug A\",     \"Male\",   \"Black\",   \"Drug A\",   \"2023-03-10\",\n  \"001-004\",  \"1965-03-08\", \"Placebo\",    \"Placebo\",    \"Female\", \"White\",   \"Placebo\",  \"2023-03-15\",\n  \"001-005\",  \"1980-09-25\", \"Drug A\",     \"Drug A\",     \"Male\",   \"Asian\",   \"Drug A\",   \"2023-03-20\"\n) %>%\n  mutate(\n    BRTHDT = ymd(BRTHDT),\n    STARTDT = ymd(STARTDT)\n  )\n\n# 2. ADSLデータセットの作成 (admiralを活用)\nadsl <- dm %>%\n  # USUBJIDとSTUDYIDを必須とする\n  derive_vars_merged(dataset_adsl, by_vars = vars(USUBJID)) %>%\n  # 年齢 (AGE) の導出\n  derive_vars_age(  # admiralの年齢導出関数\n    new_var = AGE,\n    date_var = STARTDT, # 基準となる日付\n    age_var = BRTHDT,   # 誕生日\n    unit = \"years\",\n    type = \"floor\"      # 切り捨て\n  ) %>%\n  # 治療群 (TRT01A) の導出 (ACTARMをそのまま使用する想定)\n  mutate(\n    TRT01A = ACTARM # 今回はACTARMをそのままTRT01Aとして使用\n  ) %>%\n  # 必要な変数のみを選択し、順序を調整\n  select(USUBJID, AGE, SEX, RACE, TRT01A, STARTDT, BRTHDT)\n\n# 結果の表示\nprint(adsl)\n\n# admiralのADaMメタデータに関する情報\n# ADaMデータセットには、導出変数の詳細な定義（メタデータ）を含めることが推奨されます。\n# admiralは、これらのメタデータの管理にも対応するためのフレームワークを提供しています。\n# 例えば、`admiral::use_ad_template()` などでプロジェクトのテンプレートを作成できます。\n\n# rtablesを使った簡単な表の生成例 (オプション)\n# library(rtables)\n# \n# tbl <- basic_table() %>%\n#   split_cols_by(\"TRT01A\") %>%\n#   analyze(\"AGE\", afun = list_wrap_pharma(\n#     \"Mean (SD)\" = \\(x) rtables::with_label(sprintf(\"%s (%.2f)\", format(mean(x), digits = 1), sd(x)), \"Mean (SD)\")\n#   )) %>%\n#   build_table(adsl)\n# \n# tbl\n\n```\n\nこのRコードでは、`admiral`の`derive_vars_age()`関数を使って、試験開始日時点での年齢を正確かつ標準的な方法で導出しています。SASと比較して、Rの`tidyverse`と`admiral`の組み合わせは、より読みやすく、変更しやすいコードを書くことができます。これにより、コードレビューの効率化や、将来的なメンテナンスの負担軽減が期待できます。\n\n## 実務での活用場面\n\n**admiral**は、**臨床試験**の統計プログラミングにおける様々な場面でその真価を発揮します。\n\n1.  **ADaMデータセットの効率的な作成とバリデーション**\n    *   `admiral`の標準化された関数群を使用することで、各試験で一からコードを書く手間が省け、ADaM作成にかかる時間を大幅に短縮できます。特に、年齢、治療期間、イベントフラグなどの共通変数の導出は、関数を呼び出すだけで完了します。\n    *   R MarkdownやQuartoと組み合わせることで、導出ロジック、コード、結果、そして生成されたADaMデータセットの統計量（例：欠測値の割合、カテゴリ変数の分布）を全て一つのドキュメントにまとめ、より透明性の高い**バリデーション**レポートを迅速に作成できます。\n\n2.  **解析レポート（TFL: Tables, Figures, Listings）作成との連携**\n    *   `admiral`で作成されたADaMデータセットは、同じ`pharmaverse`エコシステム内の`rtables`（表作成）や`tern`（グラフ作成）といったパッケージとシームレスに連携します。これにより、ADaM作成から最終的なTFLレポートの生成まで、全てR環境内で完結させることが可能になります。{{internal_link:rtables-パッケージで臨床試験レポートを自動生成する方法}}\n\n3.  **製薬企業・CRO間の協業促進**\n    *   オープンソースであるRは、ライセンス費用の制約がないため、外部のパートナー（CROなど）との間でプロジェクトを共有しやすいというメリットがあります。`admiral`を使用することで、共通のRベースのプログラミング環境を構築し、コードの互換性を高め、コミュニケーションを円滑にすることができます。\n\n4.  **探索的解析（Exploratory Analysis）とAI/機械学習への応用**\n    *   Rの豊富なパッケージ群（`ggplot2`による可視化、`tidymodels`による機械学習など）と`admiral`で整形されたADaMデータを組み合わせることで、探索的なデータ解析や、**AIプログラミング**による高度な予測モデルの構築を迅速に行うことができます。\n    *   新薬開発の早期段階での信号検出や、個別化医療に向けたバイオマーカー探索など、従来の統計手法では難しかった分析も容易になります。\n\nこれらの活用場面を通じて、`admiral`は臨床試験のデータ解析プロセス全体をより効率的かつ革新的に変革する可能性を秘めています。\n\n## 海外の最新動向\n\n**製薬業界**におけるRの採用は、特に欧米を中心に加速しており、**admiral Rパッケージ**はその中核を担っています。PSI（Statisticians in the Pharmaceutical Industry）、ASA（American Statistical Association）、PHUSE（Pharmaceutical Users Software Exchange）といった主要な統計学会やコミュニティでは、Rの臨床開発への適用に関する議論が活発に行われています。\n\n1.  **pharmaverseプロジェクトの進展**\n    *   `admiral`は、臨床開発向けRパッケージ群のオープンソースコミュニティである`pharmaverse`の中核を成しています。`pharmaverse`には、ADaM作成の`admiral`だけでなく、表作成の`rtables`、グラフ作成の`tern`、探索的解析の`Tplyr`など、多岐にわたるパッケージが含まれています。これらのパッケージは協調して機能するように設計されており、臨床開発ワークフロー全体をRでカバーすることを目指しています。\n    *   PHUSEやPSIのカンファレンスでは、`pharmaverse`の最新機能や、実際の製薬企業での導入事例が多数発表されています。これは、業界全体でRへの信頼と投資が高まっている証拠です。\n    *   参照: [pharmaverse 公式サイト](https://pharmaverse.org/)\n\n2.  **規制当局のRへの姿勢**\n    *   FDA（米国食品医薬品局）は、すでにRで作成された解析結果を受け入れる姿勢を示しており、Rパッケージの**バリデーション**に関するガイダンスも発表しています。PMDA（医薬品医療機器総合機構）も同様に、Rの利用を積極的に検討しています。\n    *   規制当局がオープンソースツールを承認・推奨する動きは、製薬業界がRをより広く採用するための大きな後押しとなっています。\n    *   参照: [FDA Guidance for the Use of R](https://www.fda.gov/media/159823/download) (これは一般的な情報源へのリンクであり、特定のadmiralのガイダンスではありませんが、Rに対するFDAの姿勢を示します)\n\n3.  **コミュニティ主導のバリデーションと品質管理**\n    *   `admiral`を含む`pharmaverse`パッケージは、厳格なコードレビュープロセス、単体テスト、統合テストを通じて品質が保証されています。また、CRAN（Comprehensive R Archive Network）への登録と定期的な更新により、安定性と信頼性が維持されています。これは、製薬業界の厳しい品質要件を満たす上で不可欠です。\n    *   多くの製薬企業やCROが開発に貢献しており、業界全体の知見が集約された形で進化を続けています。{{internal_link:SASからRへの移行：臨床統計における選択肢と課題}}\n\nこれらの動向は、Rが単なる研究ツールに留まらず、規制当局への提出データ作成にも十分適用可能な、製薬業界の基幹ツールとしての地位を確立しつつあることを示しています。\n\n## よくある質問（FAQ）\n\n### Q: admiralはSASを完全に置き換えますか？\n**A:** 現時点では、完全に置き換わるわけではありませんが、多くの場面でSASの代替となり得ます。特にADaM作成やTFL生成など、定型的なプログラミング作業においては、admiralを含むRパッケージがSASよりも効率的で柔軟な選択肢となることが多いです。SASは長年の実績と信頼がありますが、Rはオープンソースとしての柔軟性や最新の統計手法への対応力で優位性を持っています。\n\n### Q: admiralパッケージはバリデーションされていますか？\n**A:** はい、admiralは`pharmaverse`プロジェクトの一環として、製薬業界の厳しい要件に合致するよう、単体テスト、統合テスト、そしてコミュニティによる広範なレビュープロセスを経て開発・維持されています。これにより、その信頼性と再現性が保証されており、規制当局への提出資料の作成にも利用可能であると広く認識されています。ただし、各企業で利用する際には、内部のバリデーションポリシーに従う必要があります。\n\n### Q: admiralを使う最大のメリットは何ですか？\n**A:** 最大のメリットは、ADaM作成の**標準化と効率化**です。あらかじめ検証された関数群を使うことで、一貫性のある高品質なADaMを迅速に作成できます。また、`tidyverse`との親和性により、直感的で可読性の高いコードを書くことができ、コードレビューやメンテナンスの負担を軽減します。オープンソースであるため、ライセンス費用なしで利用できる点も大きな魅力です。\n\n### Q: RでADaMを作成する際の注意点は何ですか？\n**A:** 主な注意点は、環境構築とバージョン管理です。Rは多様なパッケージが存在するため、プロジェクトごとに必要なパッケージのバージョンを厳密に管理することが重要です。また、Rの学習コストも考慮に入れる必要があります。ただし、一度環境が整えば、その後の作業効率は大幅に向上します。十分な**バリデーション**とドキュメンテーションも不可欠です。\n\n### Q: admiralの学習リソースはどこにありますか？\n**A:** admiralの公式ウェブサイト（[https://pharmaverse.org/](https://pharmaverse.org/)）が最も良い学習リソースです。チュートリアル、ドキュメンテーション、サンプルコードが豊富に提供されています。また、PHUSEやPSIなどのコミュニティイベントでの発表資料や、GitHubリポジトリも参考になります。Rの基本的な学習は、`tidyverse`の入門書やオンラインコースから始めることをお勧めします。\n\n## 臨床統計スキルを磨くためのリソース\n\nこの記事の内容をさらに深めるために、以下のリソースが役立ちます。\n\n- **[Amazon 統計学書籍](https://www.amazon.co.jp?tag=musclelove07-22)** - 臨床統計・生物統計の参考書\n- **[Udemy SAS/R講座](https://www.udemy.com)** - 動画で学ぶSAS/R統計プログラミング\n- **[楽天 統計書籍](https://www.rakuten.co.jp)** - 統計学・データサイエンスの参考書\n\n*上記リンクからご利用いただくと、サイト運営の支援になります。*\n\n\n## まとめ\n\n本記事では、**臨床試験**における**ADaM**作成のための強力な**Rパッケージ**である**admiral**について、その基本から実践的なコード例、**製薬業界**での活用場面、そして海外の最新動向までを詳しく解説しました。\n\n`admiral`は、**AIプログラミング**時代において、臨床統計家がデータ解析の効率性、透明性、そして再現性を高めるための不可欠なツールとなりつつあります。SASプログラミングの経験がある方も、Rの学習と`admiral`の導入を検討することで、より柔軟で革新的な統計解析の世界が広がるでしょう。\n\n臨床統計ラボでは、今後も`admiral`をはじめとする`pharmaverse`パッケージの活用法や、Rを用いた実践的な**臨床統計**解析について、具体的なコードを交えながら情報発信を続けていきます。ぜひ、一緒に最新の統計解析スキルを習得し、日本の臨床開発に貢献していきましょう。\n\n---",
  "hero_emoji": "📝",
  "hero_gradient": "135deg",
  "keyword": "admiral, Rパッケージ, ADaM, 臨床試験, AIプログラミング, 製薬業界",
  "category": "R for Clinical Trials",
  "generated_at": "2026-04-12T05:19:33.057400",
  "has_affiliate": true,
  "affiliate_count": 3,
  "eyecatch_url": "https://images.unsplash.com/photo-1542903660-eedba2cda473?w=1200&h=630&fit=crop&auto=format&q=80",
  "eyecatch_credit": "Photo from [Unsplash](https://unsplash.com/)"
}