{
  "title": "Rで変わる臨床試験データ管理：修正履歴と監査証跡を完全追跡",
  "content": "# Rで変わる臨床試験データ管理：修正履歴と監査証跡を完全追跡\n\n![Rで変わる臨床試験データ管理：修正履歴と監査証跡を完全追跡](https://images.unsplash.com/photo-1526628953301-3e589a6a8b74?w=1200&h=630&fit=crop&auto=format&q=80)\n\n*Photo from [Unsplash](https://unsplash.com/)*\n\n\n## この記事でわかること\n*   Rを使った臨床試験のデータ管理のベストプラクティス\n*   データ修正（Data Modification）と監査証跡（Audit Trail）の重要性\n*   `admiral`パッケージを活用したADaMデータセットの修正・管理方法\n*   規制要件（FDA/PMDA）を満たすデータ品質維持のポイント\n*   SASとRによるデータ修正と履歴管理の実装例\n\n## 結論から言うと\n臨床試験におけるデータ修正は避けられませんが、その履歴を正確に管理する監査証跡はデータ品質と規制遵守の要です。Rの`admiral`や`tidyverse`を活用すれば、透明性の高いデータ修正プロセスと確実な監査証跡を構築でき、信頼性の高い統計解析へと繋がります。\n\n## R, データ管理, 臨床試験, データ修正, 監査証跡とは？\nRは統計解析に広く使われるオープンソース言語ですが、近年では臨床試験における**データ管理**（Data Management）や報告書作成にも活用が広がっています。特に規制当局への提出データ（SDTM/ADaM）作成において、その柔軟性と再現性が注目されています。\n\n**データ修正（Data Modification）**とは、臨床試験の実施中に、データ入力ミス、プロトコル逸脱、あるいは後続の解析方針変更などにより、既存のデータを変更する必要が生じることです。これは臨床試験では避けられないプロセスであり、いかに適切に管理するかが重要となります。\n\n**監査証跡（Audit Trail）**は、データ修正が行われた際、「いつ（When）」、「誰が（Who）」、「何を（What）」、「なぜ（Why）」変更したのか、そして「変更前の値（Old Value）」と「変更後の値（New Value）」が何だったのかを記録する体系的なログを指します。これは**データ整合性（Data Integrity）**を保証し、規制要件（例：FDA 21 CFR Part 11）を満たす上で極めて重要な要素です。\n\n**データ整合性（Data Integrity）**とは、データの正確性、完全性、一貫性、信頼性を指します。ALCOA原則（Attributable: 帰属性, Legible: 可読性, Contemporaneous: 同時性, Original: 原本性, Accurate: 正確性）に代表されるように、医薬品開発においてはデータライフサイクル全体での厳格な管理が求められます。\n\n## 統計的背景・理論\nデータ管理における統計的背景は、主にデータ品質と解析の信頼性に直結します。データ修正と監査証跡の管理は、統計解析の前提となるデータの信頼性を確保するための基盤となります。もしデータ修正の履歴が不透明であったり、不正な修正が行われたりした場合、そのデータに基づいた統計解析の結果は全く信頼できなくなります。これは、仮説検定の$P$-valueや信頼区間（Confidence Interval）の解釈に直接影響を及ぼし、医薬品の承認判断を誤らせる可能性さえあります。\n\n具体的には、以下のような統計的考慮点が背景にあります。\n*   **欠損値（Missing Values）の扱い**: データ修正により欠損値が発生したり、逆に補完されたりする場合があります。これらの変更は、欠損値メカニズム（Missing Data Mechanism）の仮定に影響を与え、統計的推論にバイアス（Bias）を導入する可能性があります。{{internal_link:欠損値補完の統計的手法}}\n*   **外れ値（Outliers）の修正**: データ修正の動機として外れ値の特定と処理がありますが、不適切な修正はデータの分布を歪め、結果として統計モデルの誤った選択や効果量の過大・過小評価に繋がります。\n*   **プロトコル逸脱（Protocol Deviations）とデータ修正**: プロトコル逸脱がデータ修正を引き起こす場合がありますが、これは対象患者群の均質性（Homogeneity）を損ない、統計的検出力（Statistical Power）や一般化可能性（Generalizability）に影響を与えます。監査証跡は、これらの逸脱がデータにどのように反映されたかを追跡する上で不可欠です。\n\nしたがって、監査証跡によって修正の透明性を確保することは、$P$-valueや信頼区間といった統計的指標の解釈に不可欠なデータ品質を保証し、ひいては統計解析結果の信頼性を担保する上で極めて重要なのです。\n\n## SAS/Rコード実装\nここでは、**臨床試験**データの修正と監査証跡の生成について、SASとRの両方で具体的なコード例を示します。特にRでは`admiral`パッケージを中心に活用し、ADaMデータセット（Analysis Data Model）の操作を例に挙げます。\n\n---\n### **SASコード実装例：データ修正とログ記録**\nSASでは、データステップや`PROC SQL`を使ってデータを修正し、同時にその変更を別のデータセットにログとして記録する方法が一般的です。\n\n```sas\n/* サンプルデータの生成 */\ndata adpc_orig;\n  length USUBJID $10 TRT01A $20 PARAMCD $8 AVALN PCHG $8.2 AVALC $10;\n  input USUBJID $ TRT01A $ PARAMCD $ AVALN PCHG $ AVALC $;\n  datalines;\nSUBJ001 Active Placebo PC     10.5 .     NORMAL\nSUBJ001 Active Placebo PC_PCHG .    15.0  .\nSUBJ002 Active Drug    PC     12.0 .     NORMAL\nSUBJ002 Active Drug    PC_PCHG .    10.0  .\nSUBJ003 Active Drug    PC     9.8  .     HIGH\nSUBJ003 Active Drug    PC_PCHG .    22.5  .\nSUBJ004 Active Placebo PC     11.2 .     NORMAL\nSUBJ004 Active Placebo PC_PCHG .    5.0   .\nSUBJ005 Active Drug    PC     15.0 .     HIGH\nSUBJ005 Active Drug    PC_PCHG .    -5.0  .\n;\nrun;\n\n/* データ修正と監査証跡の記録 */\n/* 例: USUBJID 'SUBJ003' の AVALN を 9.8 から 10.1 に修正 */\n/* 変更履歴を保存するためのデータセットを作成 */\ndata audit_trail_sas;\n  length USUBJID $10 PARAMCD $8 VARNAME $32 OLD_VALUE $20 NEW_VALUE $20 \n         CHANGE_DATE : mmddyy10. CHANGED_BY $20 CHANGE_REASON $100;\n  stop;\nrun;\n\ndata adpc_modified (label=\"Analysis Dataset for Pharmacokinetics - Modified\");\n  set adpc_orig;\n\n  /* 修正対象のレコードを特定し、変更を適用 */\n  if USUBJID = 'SUBJ003' and PARAMCD = 'PC' then do;\n    /* 監査証跡に記録するための情報を収集 */\n    call symputx('orig_avaln_val', putn(AVALN, 8.2)); /* 旧値をマクロ変数に格納 */\n    call symputx('new_avaln_val', putn(10.1, 8.2));  /* 新値をマクロ変数に格納 */\n    call symputx('change_by_val', 'Analyst_A');\n    call symputx('change_reason_val', 'Data entry error identified from source document');\n\n    /* データ修正 */\n    AVALN = 10.1; /* 新しい値に更新 */\n  end;\n\n  output; /* 全レコードを出力 */\nrun;\n\n/* 監査証跡データセットに修正情報を追加 */\ndata audit_trail_sas;\n  set audit_trail_sas;\n  if symget('change_by_val') ne '' then do;\n    USUBJID = 'SUBJ003';\n    PARAMCD = 'PC';\n    VARNAME = 'AVALN';\n    OLD_VALUE = symget('orig_avaln_val');\n    NEW_VALUE = symget('new_avaln_val');\n    CHANGE_DATE = today();\n    CHANGED_BY = symget('change_by_val');\n    CHANGE_REASON = symget('change_reason_val');\n    output;\n  end;\nrun;\n\n/* 修正されたデータセットの確認 */\nproc print data=adpc_modified;\n  title \"Modified ADPC Dataset\";\nrun;\n\n/* 監査証跡の確認 */\nproc print data=audit_trail_sas;\n  title \"Audit Trail for ADPC Dataset (SAS)\";\nrun;\n```\n\n**SASコード解説**:\n1.  `adpc_orig` データセットで初期のADaM（Analysis Data Model）サンプルを作成します。\n2.  `audit_trail_sas` データセットは、変更履歴を保存するための空のデータセットとして作成されます。`VARNAME`, `OLD_VALUE`, `NEW_VALUE`, `CHANGE_DATE`, `CHANGED_BY`, `CHANGE_REASON` といった変数が用意されています。\n3.  `adpc_modified` データステップで実際に**データ修正**を行います。`USUBJID='SUBJ003'`の`PARAMCD='PC'`の`AVALN`値を`9.8`から`10.1`に修正しています。修正前に旧値をマクロ変数に格納し、新値と共に変更履歴として収集します。\n4.  その後の`audit_trail_sas` データステップで、前ステップで収集したマクロ変数の値を使って監査証跡データセットに新しいレコードを追加します。これにより、変更されたレコードの詳細情報が記録されます。\n5.  `PROC PRINT`で、修正後のデータと監査証跡データセットの内容を確認します。\n\n---\n### **Rコード実装例：`admiral`と`tidyverse`によるデータ修正と監査証跡**\nRでは`admiral`パッケージがADaMデータセットの生成・操作に特化しており、`tidyverse`と組み合わせることで効率的かつ再現性の高い**データ管理**が可能です。ここでは、データ修正機能そのものよりも、修正プロセスを`tidyverse`で追跡し、`admiral`で生成されたADaMがどのように変更されたかを記録する方法に焦点を当てます。\n\n`admiral`は主にADaM生成の「ルール」をコードとして記述することを推奨しており、一度ADaMが生成された後の「修正」については、生成ロジック自体を修正・再実行するか、あるいは別のパッケージでデータ変更のログを管理することが考えられます。ここでは、`admiral`でADaMを作成した後に、そのデータに対する「特定条件に基づく修正」とその監査証跡の記録に焦点を当てます。\n\n```R\n# パッケージの読み込み\nlibrary(tidyverse)\nlibrary(admiral)\nlibrary(admiraldev) # admiral の開発ツール（サンプルのADMIRALデータセット利用のため）\nlibrary(rtables) # レポート生成用\n\n# 1. ADaMサンプルデータの準備 (admiralパッケージの機能を利用)\n# adsl (Subject-Level Analysis Dataset)\nadsl <- tribble(\n  ~USUBJID,  ~TRT01A,           ~AGE, ~SEX,\n  \"SUBJ001\", \"Placebo\",         65,   \"F\",\n  \"SUBJ002\", \"Treatment A\",     52,   \"M\",\n  \"SUBJ003\", \"Treatment A\",     48,   \"F\",\n  \"SUBJ004\", \"Placebo\",         71,   \"M\",\n  \"SUBJ005\", \"Treatment B\",     60,   \"M\"\n)\n\n# adpc (Pharmacokinetics Analysis Dataset) のサンプルを作成\n# 実際の臨床試験では、ADaMはSDTMから生成されますが、ここでは簡略化のため直接作成\nadpc_orig <- tribble(\n  ~USUBJID,  ~TRT01A,           ~PARAMCD, ~AVALN, ~PCHG, ~AVALC,\n  \"SUBJ001\", \"Placebo\",         \"PC\",     10.5,   NA,    \"NORMAL\",\n  \"SUBJ001\", \"Placebo\",         \"PC_PCHG\", NA,    15.0,  NA,\n  \"SUBJ002\", \"Treatment A\",     \"PC\",     12.0,   NA,    \"NORMAL\",\n  \"SUBJ002\", \"Treatment A\",     \"PC_PCHG\", NA,    10.0,  NA,\n  \"SUBJ003\", \"Treatment A\",     \"PC\",     9.8,    NA,    \"HIGH\", # この値を修正する\n  \"SUBJ003\", \"Treatment A\",     \"PC_PCHG\", NA,    22.5,  NA,\n  \"SUBJ004\", \"Placebo\",         \"PC\",     11.2,   NA,    \"NORMAL\",\n  \"SUBJ004\", \"Placebo\",         \"PC_PCHG\", NA,    5.0,   NA,\n  \"SUBJ005\", \"Treatment B\",     \"PC\",     15.0,   NA,    \"HIGH\",\n  \"SUBJ005\", \"Treatment B\",     \"PC_PCHG\", NA,    -5.0,  NA\n) %>%\n  derive_var_merged_ef_ds(dataset_adsl = adsl, by_vars = exprs(USUBJID)) # adslからデータをマージする例\n\n# 2. データ修正と監査証跡の生成\n# 監査証跡を記録するための関数\n# 実際にはより複雑なロギング機構を構築しますが、ここでは概念的な例を示します。\nrecord_audit_trail_r <- function(data_orig, data_modified, by_vars, change_meta) {\n  # キー変数を文字列に変換\n  keys_chr <- map_chr(by_vars, as_label)\n  \n  # 変更されたレコードを特定\n  changed_rows <- anti_join(data_orig, data_modified, by = keys_chr) %>%\n    bind_rows(anti_join(data_modified, data_orig, by = keys_chr)) %>%\n    distinct(!!!by_vars)\n  \n  if(nrow(changed_rows) == 0) {\n    return(tibble()) # 変更がない場合は空のtibbleを返す\n  }\n  \n  # 変更された行を元のデータと変更後データから抽出\n  orig_changed <- data_orig %>%\n    semi_join(changed_rows, by = keys_chr) %>%\n    pivot_longer(\n      cols = -all_of(keys_chr),\n      names_to = \"VARNAME\",\n      values_to = \"OLD_VALUE\"\n    )\n  \n  mod_changed <- data_modified %>%\n    semi_join(changed_rows, by = keys_chr) %>%\n    pivot_longer(\n      cols = -all_of(keys_chr),\n      names_to = \"VARNAME\",\n      values_to = \"NEW_VALUE\"\n    )\n  \n  # 変更された値のみを結合し、監査証跡を作成\n  audit_log <- inner_join(orig_changed, mod_changed, by = c(keys_chr, \"VARNAME\")) %>%\n    filter(as.character(OLD_VALUE) != as.character(NEW_VALUE)) %>%\n    mutate(\n      CHANGE_DATE = Sys.Date(),\n      CHANGED_BY = change_meta$changed_by,\n      CHANGE_REASON = change_meta$change_reason\n    ) %>%\n    select(!!!by_vars, VARNAME, OLD_VALUE, NEW_VALUE, CHANGE_DATE, CHANGED_BY, CHANGE_REASON)\n  \n  return(audit_log)\n}\n\n# 修正メタ情報\nchange_meta_info <- list(\n  changed_by = \"R Analyst\",\n  change_reason = \"Data entry error: AVALN value was incorrectly transcribed from source. Confirmed with DM.\"\n)\n\n# adpc_orig のコピーを作成し、修正を適用\nadpc_modified <- adpc_orig %>%\n  mutate(\n    AVALN = case_when(\n      USUBJID == \"SUBJ003\" & PARAMCD == \"PC\" ~ 10.1, # 9.8 から 10.1 に修正\n      TRUE ~ AVALN\n    )\n  )\n\n# 監査証跡を生成\naudit_trail_df_r <- record_audit_trail_r(\n  data_orig = adpc_orig,\n  data_modified = adpc_modified,\n  by_vars = exprs(USUBJID, PARAMCD), # レコードを一意に特定するキー\n  change_meta = change_meta_info\n)\n\n# 修正されたデータセットの確認\nmessage(\"\\n--- Modified ADPC Dataset ---\")\nprint(adpc_modified)\n\n# 監査証跡の確認\nmessage(\"\\n--- Audit Trail (R) ---\")\nprint(audit_trail_df_r)\n\n# rtablesを使った監査証跡のレポート例 (簡易版)\n# `rtables` は通常、臨床試験のテーブル生成に使われますが、\n# データフレームの内容を整形して表示するのにも使えます。\n# ここでは簡易的な例を示します。\nmessage(\"\\n--- Audit Trail Report (rtables) ---\")\nif (nrow(audit_trail_df_r) > 0) {\n  tbl <- basic_table() %>%\n    split_cols_by(\"VARNAME\") %>%\n    add_colby_total() %>%\n    add_row_groups(audit_trail_df_r, by_vars = exprs(USUBJID, PARAMCD), \n                   cf_level = \"PARAMCD\", cfn_level = \"USUBJID\") %>%\n    build_table(audit_trail_df_r,\n                alt_counts_df = audit_trail_df_r) # カウント表示のためにデータフレームを渡す\n  \n  # テーブルの表示 (コンソール出力)\n  print(tbl)\n} else {\n  message(\"No changes recorded in audit trail for reporting.\")\n}\n\n# もっと詳細な `rtables` の活用例は {{internal_link:rtablesによる臨床試験レポート作成}} をご覧ください。\n```\n\n**Rコード解説**:\n1.  **パッケージ読み込み**: `tidyverse`（データ操作）、**`admiral`**（ADaM関連関数）、**`rtables`**（レポート生成）を読み込みます。\n2.  **サンプルデータ準備**: `adsl`と`adpc_orig`（元のADaMデータ）を`tribble`で作成します。`derive_var_merged_ef_ds`は`admiral`の関数で、adslからUSUBJIDなどをマージする例です。\n3.  **データ修正**: `adpc_orig`を`adpc_modified`にコピーし、`mutate`と`case_when`を使って特定のレコードの`AVALN`を修正します。ここでは`USUBJID == \"SUBJ003\"`の`PARAMCD == \"PC\"`の`AVALN`を`9.8`から`10.1`に変更しています。\n4.  **監査証跡の生成 (`record_audit_trail_r`関数)**:\n    *   この関数は、元のデータセット(`data_orig`)と修正後のデータセット(`data_modified`)を比較し、変更されたレコードと変数を特定します。\n    *   `anti_join`を使って変更があったレコードのキーを特定し、`pivot_longer`を使って各変数の変更前後の値を抽出しています。\n    *   `CHANGE_DATE`, `CHANGED_BY`, `CHANGE_REASON`といったメタ情報を付加し、監査証跡データフレーム(`audit_log`)を作成します。\n5.  **監査証跡の確認**: 生成された`adpc_modified`と`audit_trail_df_r`データフレームを`print()`で表示し、内容を確認します。\n6.  **`rtables`によるレポート**: **`rtables`**パッケージを使って、生成された`audit_trail_df_r`データフレームをより視覚的に分かりやすいテーブル形式で出力する簡易例を示しています。`rtables`は複雑な臨床試験テーブル作成に非常に強力ですが、ここではデータフレームの表示にも利用できることを示しました。\n\nこのRコードは、データ修正と監査証跡の記録をプログラム的に行う一例です。実際には、データ修正の要請があった場合に、既存のADaM生成スクリプトに修正ロジックを追加し、それをバージョン管理システム（Gitなど）で管理することで、コードレベルでの監査証跡を確保することが一般的です。また、データ修正の申請・承認プロセスと連動させるためのより高度なシステムが必要となるでしょう。\n\n## 実務での活用場面\n臨床試験における**データ修正**と**監査証跡**は、以下のような実務場面で不可欠です。\n\n*   **データクリーンアップ（Data Cleaning）フェーズ**: CRF（症例報告書）からのデータ入力後、論理チェックや範囲チェックで検出された疑義データ（Query Data）を修正する際に、そのすべての修正を記録します。\n*   **SDTM/ADaMデータセット作成時**: SDTM（Study Data Tabulation Model）やADaM（Analysis Data Model）の変換ルールに誤りがあった場合や、データソースの不備によりデータ修正が必要になった場合に、その変更履歴を詳細に記録します。特にADaMは解析に直結するため、その修正は厳格な管理が求められます。\n*   **規制当局への提出**: FDAやPMDAなどの規制当局は、**臨床試験**データの完全性（Completeness）と信頼性（Reliability）を重視します。監査証跡は、データがどのように変更され、その変更が正当であったかを説明するための重要なエビデンスとなります。監査証跡が不十分であると、データを受け入れてもらえない可能性があります。\n*   **データバリデーション（Data Validation）**: 独立した第三者やシステムによるデータ品質チェック時に、修正履歴の確認はデータの正確性（Accuracy）を保証する上で重要なステップです。\n*   **メディカルレビュー（Medical Review）**: 医師が症例データをレビューする際に、過去のデータ変更履歴を確認することで、患者の状態や治療効果の評価をより正確に行うことができます。\n\nこれらの場面で**R**と**`admiral`**を活用することで、データ生成から修正、そして監査証跡の管理までを一貫したコードベースで実施し、**データ管理**プロセスの透明性と再現性を高めることが期待されます。\n\n## 海外の最新動向\n近年の海外の臨床統計コミュニティ、特にPHUSE（Pharmaceutical Users Software Exchange）、ASA Biopharmaceutical Section、PSI（Statisticians in the Pharmaceutical Industry）などでは、**R**の**臨床試験**分野での活用が急速に進んでいます。**データ修正**と**監査証跡**の分野でも、Rベースのソリューションへの関心が高まっています。\n\n1.  **Rの規制要件への対応**: FDAやEMAなどの規制当局は、Rを含むオープンソースソフトウェアの利用に肯定的な姿勢を示しており、適切なバリデーションとドキュメンテーションがあれば承認申請に利用可能であると明言しています。これは、Rでデータ修正や監査証跡システムを構築する際の大きな後押しとなっています。\n    *   参考: FDA R Validation Hub: [https://www.r-consortium.org/r-validation-hub](https://www.r-consortium.org/r-validation-hub)\n2.  **`admiral`エコシステムの発展**: **`admiral`**パッケージは、ADaMデータセットの生成規範をRで実現することを目的としており、その開発はPHUSEのADaM Teamと密接に連携しています。`admiral`は、ADaMの生成ロジック自体をコードとして管理することで、データ修正が発生した際にはそのロジックをバージョン管理システム（例：Git）で追跡し、変更の正当性を担保するというアプローチを推奨しています。\n3.  **データ整合性（Data Integrity）ガイドラインの強化**: 医薬品規制当局は、データライフサイクル全体にわたるデータ整合性の確保を厳しく求めています。これは、紙媒体での記録から電磁記録への移行が進む中で、**監査証跡**の重要性が一層高まっていることを意味します。Rを用いたデータ管理システムにおいても、ALCOA原則（Attributable, Legible, Contemporaneous, Original, Accurate）に準拠した監査証跡機能の設計が求められています。\n4.  **PHUSE/R/SASの共存戦略**: 多くの製薬企業やCROでは、依然としてSASが主要な解析ツールですが、Rの柔軟性と拡張性を活用しようとする動きが加速しています。データ修正や監査証跡の分野でも、SASとRを連携させ、それぞれの強みを活かしたハイブリッドなシステム構築が議論されています。例えば、SASで既存の監査証跡を管理しつつ、Rで新たなデータ生成パイプラインを構築し、その変更履歴をGitで管理するといった戦略です。\n5.  **Metadata-drivenなデータ管理**: **データ修正**をより効率的かつ堅牢に行うために、メタデータ（データに関するデータ）を基盤とした**データ管理**手法が注目されています。どの変数が、どのような条件で、誰によって変更されたかといった情報をメタデータとして管理し、自動的に監査証跡を生成するシステムは、将来的なRベースのデータ管理における重要な方向性となるでしょう。\n\nこれらの動向は、**R**が**臨床試験**の**データ管理**と**監査証跡**の領域で、単なる解析ツールを超えた役割を担いつつあることを示しています。\n\n## よくある質問（FAQ）\n\n**Q1: Rで作成したデータセットの監査証跡は、規制当局に提出可能ですか？**\nA1: はい、適切にバリデーションされ、そのプロセスが文書化されていれば可能です。FDA 21 CFR Part 11のような電磁記録に関する規制を遵守し、変更履歴が完全に追跡可能であり、データの整合性が保証されていることを示す必要があります。R ConsortiumのR Validation Hubなどの活動が、Rのバリデーションを支援しています。\n\n**Q2: SASからRへデータ管理ツールを移行するメリットは何ですか？**\nA2: Rはオープンソースであり、ライセンスコストがかかりません。また、`tidyverse`や`admiral`のような強力なパッケージエコシステムにより、コードの可読性（Readability）と保守性（Maintainability）が向上します。さらに、最新の統計手法やグラフ作成機能へのアクセスが容易で、柔軟なカスタマイズが可能です。監査証跡に関しては、Gitなどのバージョン管理システムとRスクリプトを組み合わせることで、コードベースでの変更履歴管理を強化できます。\n\n**Q3: データ修正は頻繁に行われますが、Rでの自動化は可能ですか？**\nA3: **データ修正**の自動化は慎重に行う必要がありますが、定型的な修正（例：単位変換、特定コードの置換）であれば**R**のスクリプトで自動化し、その修正ロジック自体をコードとして管理・バージョン管理することで、監査証跡として機能させることが可能です。ただし、個別の手動修正については、人間によるレビューと承認プロセスを伴う形でログを記録する仕組みが必要となります。\n\n**Q4: `admiral`パッケージはデータ修正機能を持っていますか？**\nA4: **`admiral`**は主に、SDTMからADaMを生成するための統一された「派生ルール」を提供することに焦点を当てています。つまり、データの「生成ロジック」を記述するためのものです。一度生成されたADaMを「修正」する直接的な機能は提供していませんが、`tidyverse`と組み合わせてデータ修正ロジックを記述し、その変更をバージョン管理システムで追跡することで、実質的な監査証跡を構築できます。`admiral`の設計思想は、データ生成プロセスの透明性と再現性を最大化することにあります。\n\n**Q5: 監査証跡の記録において、どのような情報を含めるべきですか？**\nA5: 一般的に、以下の情報を含めることが推奨されます：\n*   変更日時（When）\n*   変更者（Who）\n*   変更対象のデータ識別子（例：USUBJID, PARAMCD, VISITなど）\n*   変更された変数名（What: Variable Name）\n*   変更前の値（Old Value）\n*   変更後の値（New Value）\n*   変更理由（Why）\n*   変更承認者（承認プロセスがある場合）\nこれらの情報が揃っていることで、データの完全性と信頼性を客観的に証明できます。\n\n## 臨床統計スキルを磨くためのリソース\n\nこの記事の内容をさらに深めるために、以下のリソースが役立ちます。\n\n- **[Amazon 統計学書籍](https://www.amazon.co.jp?tag=musclelove07-22)** - 臨床統計・生物統計の参考書\n- **[Udemy SAS/R講座](https://www.udemy.com)** - 動画で学ぶSAS/R統計プログラミング\n- **[楽天 統計書籍](https://www.rakuten.co.jp)** - 統計学・データサイエンスの参考書\n\n*上記リンクからご利用いただくと、サイト運営の支援になります。*\n\n\n## まとめ\n**臨床試験**における**R、データ管理、データ修正、監査証跡**は、データ駆動型医薬品開発の信頼性を支える重要な要素です。データ修正は避けられないプロセスですが、そのすべての変更を**監査証跡**として記録し、透明性を確保することは、データ整合性（Data Integrity）と規制遵守の観点から極めて重要です。\n\n本記事では、SASとR、特に`tidyverse`や**`admiral` R**といった**臨床試験**用パッケージを活用したデータ修正と監査証跡の具体的な実装例をご紹介しました。Rの柔軟性とオープンソース性は、コードベースでのデータ生成・修正プロセスの透明性を高め、Gitなどのバージョン管理システムと組み合わせることで、強固な監査証跡を構築する可能性を秘めています。\n\n`admiral`はADaMデータセット生成の標準化を推進し、**`rtables`**はデータ品質レポートの作成を支援します。これらのツールは、日本の臨床統計担当者が国際的なデータ提出基準を満たし、より効率的で信頼性の高い**臨床試験**データ管理を実現するための強力な武器となるでしょう。\n\n未来の臨床試験データ管理は、**R 臨床試験**での活用により、よりオープンで再現性が高く、そして監査に耐えうるものへと進化していきます。ぜひ、Rと最新パッケージの導入を検討し、日々の業務に活かしてみてください。\n{{internal_link:R for Clinical Trialsの基本}}\n\n---\n**参考文献・ガイドライン**\n*   FDA 21 CFR Part 11: Electronic Records; Electronic Signatures\n    *   [https://www.accessdata.fda.gov/scripts/cdrh/cfdocs/cfcfr/CFRSearch.cfm?CFRPart=11](https://www.accessdata.fda.gov/scripts/cdrh/cfdocs/cfcfr/CFRSearch.cfm?CFRPart=11)\n*   ICH E6(R2) Good Clinical Practice\n    *   [https://www.ich.org/page/efficacy-guidelines](https://www.ich.org/page/efficacy-guidelines)\n*   PHUSE: Emerging Trends in Clinical Data Science\n    *   [https://www.phuse.global/](https://www.phuse.global/)\n*   R Consortium: R Validation Hub\n    *   [https://www.r-consortium.org/r-validation-hub](https://www.r-consortium.org/r-validation-hub)\n*   `admiral` package documentation\n    *   [https://cran.r-project.org/web/packages/admiral/index.html](https://cran.r-project.org/web/packages/admiral/index.html)\n*   `rtables` package documentation\n    *   [https://cran.r-project.org/web/packages/rtables/index.html](https://cran.r-project.org/web/packages/rtables/index.html)\n",
  "meta_description": "臨床試験におけるRでのデータ管理、データ修正、監査証跡の重要性を解説。admiralやtidyverseを活用し、データ品質と規制要件を満たす実践的なRコード例を紹介します。",
  "tags": [
    "R",
    "臨床試験",
    "データ管理",
    "監査証跡",
    "admiral"
  ],
  "slug": "r-clinical-trial-data-management-audit-trail",
  "faq": [
    {
      "question": "Rで作成したデータセットの監査証跡は、規制当局に提出可能ですか？",
      "answer": "はい、適切にバリデーションされ、そのプロセスが文書化されていれば可能です。FDA 21 CFR Part 11のような電磁記録に関する規制を遵守し、変更履歴が完全に追跡可能であり、データの整合性が保証されていることを示す必要があります。R ConsortiumのR Validation Hubなどの活動が、Rのバリデーションを支援しています。"
    },
    {
      "question": "SASからRへデータ管理ツールを移行するメリットは何ですか？",
      "answer": "Rはオープンソースであり、ライセンスコストがかかりません。また、`tidyverse`や`admiral`のような強力なパッケージエコシステムにより、コードの可読性と保守性が向上します。さらに、最新の統計手法やグラフ作成機能へのアクセスが容易で、柔軟なカスタマイズが可能です。監査証跡に関しては、Gitなどのバージョン管理システムとRスクリプトを組み合わせることで、コードベースでの変更履歴管理を強化できます。"
    },
    {
      "question": "データ修正は頻繁に行われますが、Rでの自動化は可能ですか？",
      "answer": "データ修正の自動化は慎重に行う必要がありますが、定型的な修正（例：単位変換、特定コードの置換）であればRのスクリプトで自動化し、その修正ロジック自体をコードとして管理・バージョン管理することで、監査証跡として機能させることが可能です。ただし、個別の手動修正については、人間によるレビューと承認プロセスを伴う形でログを記録する仕組みが必要となります。"
    },
    {
      "question": "`admiral`パッケージはデータ修正機能を持っていますか？",
      "answer": "`admiral`は主に、SDTMからADaMを生成するための統一された「派生ルール」を提供することに焦点を当てています。つまり、データの「生成ロジック」を記述するためのものです。一度生成されたADaMを「修正」する直接的な機能は提供していませんが、`tidyverse`と組み合わせてデータ修正ロジックを記述し、その変更をバージョン管理システムで追跡することで、実質的な監査証跡を構築できます。`admiral`の設計思想は、データ生成プロセスの透明性と再現性を最大化することにあります。"
    },
    {
      "question": "監査証跡の記録において、どのような情報を含めるべきですか？",
      "answer": "一般的に、以下の情報を含めることが推奨されます：変更日時、変更者、変更対象のデータ識別子、変更された変数名、変更前の値、変更後の値、変更理由、変更承認者（承認プロセスがある場合）。これらの情報が揃っていることで、データの完全性と信頼性を客観的に証明できます。"
    }
  ],
  "hero_emoji": "📝",
  "hero_gradient": "135deg",
  "keyword": "R, データ管理, 臨床試験, データ修正, 監査証跡",
  "category": "R for Clinical Trials",
  "generated_at": "2026-04-16T05:26:41.451972",
  "has_affiliate": true,
  "affiliate_count": 3,
  "eyecatch_url": "https://images.unsplash.com/photo-1526628953301-3e589a6a8b74?w=1200&h=630&fit=crop&auto=format&q=80",
  "eyecatch_credit": "Photo from [Unsplash](https://unsplash.com/)"
}