{
  "title": "Rとadmiralで臨床試験解析を加速！AIでプログラミング効率を革新",
  "content": "# Rとadmiralで臨床試験解析を加速！AIでプログラミング効率を革新\n\n![Rとadmiralで臨床試験解析を加速！AIでプログラミング効率を革新](https://images.unsplash.com/photo-1551288049-bebda4e38f71?w=1200&h=630&fit=crop&auto=format&q=80)\n\n*Photo from [Unsplash](https://unsplash.com/)*\n\n\n「臨床統計ラボ」へようこそ！長年の臨床統計経験を持つ私が、皆さんの臨床試験データ解析業務を劇的に効率化する最先端のツール、Rの`admiral`パッケージについて徹底解説します。\n\n## この記事でわかること\n*   Rの`admiral`パッケージを使ったADaM（Analysis Data Model）データセット作成の基礎と実践的な使い方。\n*   SASとR、それぞれのコード例を通じて、臨床試験におけるプログラミング効率化の具体的な方法。\n*   AI（人工知能）技術が臨床試験のプログラミングにどう貢献し、未来をどう変えるか。\n*   海外の主要な臨床統計コミュニティ（PHUSE, PSIなど）におけるR活用の最新動向。\n\n## 結論から言うと\n`admiral`は、R言語と`tidyverse`の強力な機能を活用し、CDISC ADaMデータセット作成を標準化・自動化する画期的なパッケージです。これにより、SASと比較してプログラミング効率が飛躍的に向上し、AIとの連携により、将来的にはコード生成やレビュープロセスがさらに加速されるでしょう。日本の臨床統計担当者も、この波に乗り遅れるべきではありません。\n\n## admiralとは？\n`admiral`（**A**nalysis **D**ata **M**odel **I**mplementation in **R**）は、臨床試験の解析用データセット、特にCDISC ADaM（解析データモデル）の作成を支援するために開発されたRパッケージです。\n\n臨床試験では、SDTM（Submission Data Tabulation Model）という標準形式で収集された生データに近い形から、統計解析に適したADaMデータセットを作成する必要があります。このADaM作成プロセスは複雑で、多くの手作業やカスタムコードが必要とされがちでした。\n\n`admiral`は、このADaM作成を標準化し、自動化するための豊富な関数を提供します。例えば、年齢区分（Age Group）やベースライン値（Baseline Value）の導出、治療期間（Treatment Duration）の計算など、臨床試験で頻繁に必要とされる派生変数を、検証済みの統一された方法で作成できます。\n\nこのパッケージは、現代のRプログラミングの主流である`tidyverse`フレームワークに基づいて設計されており、直感的で読みやすく、メンテナンスしやすいコードを書くことを可能にします。また、`admiral`は`pharmaverse`イニシアチブの一環として開発されており、臨床試験に特化したRパッケージエコシステムの一部を形成しています。\n\n## 統計的背景・理論\n臨床試験におけるデータ解析は、科学的妥当性と再現性が極めて重要です。これを担保するために、CDISC（Clinical Data Interchange Standards Consortium）が提唱するデータ標準、特にADaMが広く採用されています。\n\n**CDISC ADaMの重要性**\nADaMデータセットは、以下の原則に基づいて設計されます。\n*   **解析準備完了性 (Analysis Ready)**: 解析者が追加のデータ操作なしに、直接統計解析を実行できる状態であること。\n*   **トレーサビリティ (Traceability)**: ADaMの各変数が、SDTMデータセット、ひいては原データ（Source Data）まで遡って追跡可能であること。\n\nADaMIG（ADaM Implementation Guide）には、ADSL（Subject-Level Analysis Dataset）やADPC（Pharmacokinetics Concentration Analysis Dataset）など、具体的なADaMデータセットの構造と、そこに含めるべき共通の派生変数に関するガイダンスが記載されています。例えば、年齢区分（AGEGR1）、治験薬投与期間（TRTDUR）、解析対象者フラグ（SAFFL）などは、ほとんどの臨床試験で必要となる標準的な変数です。\n\n`admiral`パッケージは、これらのADaMIGの原則と具体的なガイダンスに基づいて開発されています。パッケージ内の各関数は、標準的な変数導出ロジックをカプセル化（汎用的な処理を一つの関数にまとめること）しており、プログラマーは複雑な条件分岐や計算ロジックをゼロから書く必要がありません。これにより、コードの誤りを減らし、標準化された一貫性のあるADaMデータセットを効率的に作成できるようになるのです。\n\n数式による厳密な統計理論というよりは、データ標準と実装方法に関する理論が中心となりますが、`admiral`を使うことで、データが最終的にどのような統計モデルに適用されるかを意識した「解析に適したデータ」を効率的に生成できる点が、その統計的背景となります。\n\n## SAS/Rコード実装\nここでは、SDTM形式の仮想的なADSLデータから、`admiral`を使ってADaM形式の変数を導出する具体的なRコードと、それに対応するSASコードを示します。これにより、両者の違いと`admiral`の効率性を実感できるでしょう。\n\nまず、RとSASで共通のサンプルデータを作成します。\n\n### Rコード：`admiral`によるADaMデータセットの作成\n`admiral`は`tidyverse`のエコシステム上に構築されているため、`dplyr`などのパッケージと組み合わせて、パイプ演算子（`%>%`）を使った流れるようなコードが特徴です。\n\n```R\nlibrary(admiral)\nlibrary(dplyr)\nlibrary(stringr) # 文字列操作のため\n\n# 1. サンプルSDTM-like ADSLデータの生成\n# 実際の臨床試験では、havenパッケージなどでXPTファイルを読み込みます\nadsl_sdtm <- tibble::tribble(\n  ~USUBJID,   ~SUBJID, ~SITEID, ~SEX,   ~AGE, ~ARMCD, ~TRT01A,        ~TRT01P,        ~DTHFL,\n  \"001-1001\", \"1001\",  \"SITE01\", \"M\",    55,  \"TRT\",  \"Drug A\",       \"Drug A\",       \"N\",\n  \"001-1002\", \"1002\",  \"SITE01\", \"F\",    32,  \"PLB\",  \"Placebo\",      \"Placebo\",      \"N\",\n  \"001-1003\", \"1003\",  \"SITE02\", \"M\",    68,  \"TRT\",  \"Drug A\",       \"Drug A\",       \"Y\",\n  \"001-1004\", \"1004\",  \"SITE02\", \"F\",    45,  \"PLB\",  \"Placebo\",      \"Placebo\",      \"N\",\n  \"001-1005\", \"1005\",  \"SITE01\", \"M\",    72,  \"TRT\",  \"Drug A\",       \"Drug A\",       \"N\",\n  \"001-1006\", \"1006\",  \"SITE03\", \"F\",    28,  \"PLB\",  \"Placebo\",      \"Placebo\",      \"N\"\n)\n\n# 2. admiralを活用したADaM ADSL派生変数の作成例\nadsl_adam <- adsl_sdtm %>%\n  # USUBJID (被験者識別子) は通常SDTMからそのまま利用\n  # その他の共通変数（例えば、治療群）を導出\n  # derive_var_trt_gr()はTRTxxA/TRTxxPなどの変数を元にTRTGRなどを導出\n  derive_var_trt_gr(\n    trt_var = TRT01A, # 実際の治療アーム\n    gr_var = TRTGR # 導出する治療群変数名\n  ) %>%\n  # SAFFL (安全性解析対象者フラグ) の派生\n  # 通常、治験薬が投与された全被験者を対象\n  mutate(SAFFL = if_else(!is.na(TRT01A), \"Y\", NA_character_)) %>%\n  # EFFFL (有効性解析対象者フラグ) の派生 (例: 治験薬投与かつ主要評価項目データあり)\n  # 今回は簡略化のため、TRTGRが\"Placebo\"でない場合と仮定\n  mutate(EFFFL = if_else(TRTGR != \"Placebo\", \"Y\", NA_character_)) %>%\n  # AGEGR1 (年齢区分) の派生\n  # derive_vars_age_gr() はadmiralの便利な関数\n  derive_vars_age_gr(\n    age_var = AGE, # 年齢変数\n    age_groups = list(\n      \"<18\"   = c(0, 17),\n      \"18-64\" = c(18, 64),\n      \">=65\"  = c(65, Inf)\n    ),\n    new_var = AGEGR1 # 導出する年齢区分変数名\n  ) %>%\n  # DEATHFL (死亡フラグ) の派生\n  # DTHFLが\"Y\"の場合に\"Y\"をセット\n  mutate(DEATHFL = if_else(DTHFL == \"Y\", \"Y\", NA_character_)) %>%\n  # 解析用データセットの最終的な変数選択と順序付け (ADaMIGに準拠)\n  select(USUBJID, TRT01A, TRTGR, SAFFL, EFFFL, AGE, AGEGR1, SEX, DEATHFL, everything())\n\n# 結果の確認\nprint(adsl_adam)\n\n# オプション: ADaMデータセットをXPT形式で保存する場合\n# haven::write_xpt(adsl_adam, \"adsl.xpt\", version = 5) # PMDA/FDA提出用\n```\n\n### SASコード：同じADaM変数の作成\nSASでは、主に`DATA`ステップで変数導出を行います。比較のため、上記と同じロジックをSASで実装します。\n\n```sas\n/* 1. サンプルSDTM-like ADSLデータの生成 (SAS) */\ndata work.adsl_sdtm_sas;\n  length USUBJID $10. SUBJID $4. SITEID $6. SEX $1. ARMCD $3. TRT01A $8. TRT01P $8. DTHFL $1.;\n  input USUBJID SUBJID SITEID SEX AGE ARMCD TRT01A TRT01P DTHFL;\n  datalines;\n  001-1001 1001 SITE01 M 55 TRT Drug_A Drug_A N\n  001-1002 1002 SITE01 F 32 PLB Placebo Placebo N\n  001-1003 1003 SITE02 M 68 TRT Drug_A Drug_A Y\n  001-1004 1004 SITE02 F 45 PLB Placebo Placebo N\n  001-1005 1005 SITE01 M 72 TRT Drug_A Drug_A N\n  001-1006 1006 SITE03 F 28 PLB Placebo Placebo N\n  ;\nrun;\n\n/* 2. ADaM ADSLの作成（簡略化） - SAS */\ndata work.adsl_adam_sas;\n  set work.adsl_sdtm_sas;\n\n  /* TRTGR (Treatment Group) の派生 */\n  if TRT01A = 'Drug_A' then TRTGR = 'Drug A';\n  else if TRT01A = 'Placebo' then TRTGR = 'Placebo';\n  else TRTGR = 'Other';\n  length TRTGR $8.; /* 変数の長さを定義 */\n\n  /* SAFFL (安全性解析対象者フラグ) の派生 */\n  if not missing(TRT01A) then SAFFL = 'Y';\n  else SAFFL = '';\n  length SAFFL $1.;\n\n  /* EFFFL (有効性解析対象者フラグ) の派生 */\n  if TRTGR ne 'Placebo' then EFFFL = 'Y';\n  else EFFFL = '';\n  length EFFFL $1.;\n\n  /* AGEGR1 (年齢区分) の派生 */\n  if AGE >= 0 and AGE <= 17 then AGEGR1 = \"<18\";\n  else if AGE >= 18 and AGE <= 64 then AGEGR1 = \"18-64\";\n  else if AGE >= 65 then AGEGR1 = \">=65\";\n  length AGEGR1 $5.;\n\n  /* DEATHFL (死亡フラグ) の派生 */\n  if DTHFL = 'Y' then DEATHFL = 'Y';\n  else DEATHFL = '';\n  length DEATHFL $1.;\n\n  /* 変数のラベル付け */\n  label\n    TRTGR   = \"Treatment Group (Actual)\"\n    SAFFL   = \"Safety Analysis Flag\"\n    EFFFL   = \"Efficacy Analysis Flag\"\n    AGEGR1  = \"Age Group\"\n    DEATHFL = \"Death Flag\"\n  ;\n\n  /* 解析用データセットの最終的な変数選択と順序付け */\n  keep USUBJID TRT01A TRTGR SAFFL EFFFL AGE AGEGR1 SEX DEATHFL\n       SUBJID SITEID ARMCD TRT01P DTHFL; /* その他の元の変数も必要に応じて保持 */\nrun;\n\nproc print data=work.adsl_adam_sas(obs=6);\n  title \"ADaM ADSL Data Created by SAS\";\n  var USUBJID TRT01A TRTGR SAFFL EFFFL AGE AGEGR1 SEX DEATHFL;\nrun;\n```\n\n`admiral`のコードは、特に`derive_vars_age_gr()`のような専用関数を使うことで、年齢区分のような一般的な導出ロジックを簡潔に表現できます。SASでももちろん可能ですが、`if-else`の羅列になりがちで、読解性やメンテナンス性において`admiral`の関数は優位性があります。\n\n## 実務での活用場面\n`admiral`は、臨床試験のデータ解析プログラミングにおいて、多岐にわたる場面でその真価を発揮します。\n\n1.  **ADaMデータセット作成の標準化と自動化**:\n    *   開発初期から承認申請まで、一貫したロジックでADaMデータセットを作成できます。治験ごとに異なるコードを書く手間が省け、品質のばらつきを防ぎます。\n\n2.  **プログラミング効率化とリードタイム短縮**:\n    *   共通の導出ロジックがパッケージ関数として提供されているため、ゼロからコードを書く時間を大幅に削減できます。特に、新しいプロジェクトが始まる際のセットアップ時間が短縮され、より迅速な解析結果の提供が可能になります。\n\n3.  **コードレビューの効率化**:\n    *   標準化された関数を使用することで、コードの意図が明確になり、レビューアはビジネスロジックではなく、主に引数やデータフローの確認に集中できます。これにより、レビュープロセスが迅速かつ正確になります。\n\n4.  **再現性と品質の向上**:\n    *   `admiral`の関数は厳格なテストを経て開発・維持されており、その利用はデータセットの品質と解析の再現性を保証します。これは、規制当局（例: FDA, PMDA）へのデータ提出において極めて重要です。\n\n5.  **共同開発プロジェクトでの連携強化**:\n    *   Rを使用するデータサイエンティストや統計家との連携が容易になります。共通の言語とフレームワークで作業することで、よりスムーズなコラボレーションが実現します。\n\n6.  **AIプログラミングアシスタントとの相乗効果**:\n    *   `admiral`のような構造化されたパッケージは、AIを活用したコード生成や自動レビューと非常に相性が良いです。例えば、ADaMIGの要件を自然言語でAIに指示するだけで、`admiral`関数を組み合わせたRコードが生成される、といった未来が考えられます。{{internal_link:AIによるコード生成の可能性}}\n\nこれらの活用により、臨床統計担当者は反復的なプログラミング作業から解放され、より高度な統計解析や結果の解釈に集中できるようになります。\n\n## 海外の最新動向\nR for Clinical Trialsは、近年、グローバルな臨床統計コミュニティで最も活発な議論が交わされているトピックの一つです。`admiral`は、この動きの中心にあるパッケージです。\n\n**PHUSE (Pharmaceutical Users Software Exchange) とPSI (Statisticians in the Pharmaceutical Industry)**\nこれらの主要なコミュニティは、「R in Clinical Trials」というイニシアチブを推進しており、Rを臨床試験の標準ツールとして確立するためのガイドライン策定やパッケージ開発を支援しています。`admiral`もこのイニシアチブのもとで活発に開発が進められています。PHUSEやPSIのワークショップでは、`admiral`を使ったADaM作成のベストプラクティスや、他の`pharmaverse`パッケージ（例: `rtables`を使ったテーブル作成、`Tplyr`を使った記述統計量生成など）との連携について議論されています。\n\n**FDA/PMDAのRパッケージ利用へのスタンス**\n米国FDA（食品医薬品局）や日本のPMDA（医薬品医療機器総合機構）も、Rの使用をより積極的に受け入れる方向へと動いています。FDAは、Rパッケージのバリデーション（Validation、検証）に関する考え方を提示し始めており、開発元の継続的なテストとドキュメンテーションがあれば、提出データ作成にRを使用することを容認する姿勢を示しています。\n\n参考：\n*   PHUSE R in Clinical Trials: [https://www.phuse.global/R-in-Clinical-Trials](https://www.phuse.global/R-in-Clinical-Trials)\n*   CDISC ADaM Model: [https://www.cdisc.org/standards/foundational/adam](https://www.cdisc.org/standards/foundational/adam)\n\n**AIとの連携の可能性**\n近年、ChatGPTのような大規模言語モデル（LLM）の進化は目覚ましく、プログラミングアシスタントとしての利用が急速に広まっています。臨床試験の文脈でも、AIは以下のような形で`admiral`と連携し、プログラミング効率を革新する可能性を秘めています。\n\n*   **要件定義からのコード生成**: ADaMIGの記述や社内仕様書をAIに入力するだけで、それに合致する`admiral`コードの骨子を自動生成する。\n*   **コードレビューの自動化**: AIが生成された`admiral`コードを解析し、ADaMの標準や社内コーディング規約に準拠しているかを自動でチェックし、修正提案を行う。\n*   **エラー診断とデバッグ支援**: エラーメッセージをAIに与えることで、問題の原因特定や解決策の提案を迅速に行う。\n\nこれはまだ発展途上の分野ですが、`admiral`のような標準化されたパッケージは、AIが学習しやすく、信頼性の高いコードを生成するための基盤となり得ます。プログラマーはより戦略的なタスクに集中できるようになるでしょう。{{internal_link:RとAIの連携事例}} \n\n## よくある質問（FAQ）\n\n### Q1: `admiral`はSASを完全に置き換えられますか？\n**A1**: 現時点では「完全に」置き換えるというよりは、**補完し、代替手段を提供するもの**と考えるのが適切です。特にADaMデータセットの作成においては、`admiral`はSASよりも効率的でモダンな選択肢となり得ます。しかし、長年のSAS資産や規制上の理由から、全てのプロセスをすぐにRに移行することは難しい場合があります。両者を共存させながら、Rの適用範囲を徐々に広げていくのが現実的なアプローチでしょう。\n\n### Q2: `admiral`を使うメリットは何ですか？\n**A2**: 主なメリットは、**プログラミングの標準化、効率化、再現性の向上**です。定型的なADaM変数の導出を迅速かつ正確に行え、コードレビューの負担も軽減されます。`tidyverse`ベースであるため、モダンなRの強力なデータ操作機能とシームレスに連携できる点も大きな利点です。\n\n### Q3: `admiral`の学習コストは高いですか？\n**A3**: R言語と`tidyverse`の基本的な知識があれば、比較的スムーズに学習できます。特に、データフレーム操作の経験がある方なら、`admiral`の関数は直感的に理解しやすいはずです。公式ドキュメントやオンラインのチュートリアルも充実しており、学習リソースは豊富です。\n\n### Q4: AIは`admiral`のプログラミングにどう役立ちますか？\n**A4**: AI、特に大規模言語モデルは、`admiral`を用いたRプログラミングの**強力なアシスタント**となり得ます。例えば、ADaMの仕様書から自動で`admiral`のコードスニペットを生成したり、既存のコードの問題点を指摘・修正提案したりすることができます。これにより、プログラマーはよりクリエイティブな問題解決に集中し、効率を飛躍的に高めることが期待されます。\n\n## 臨床統計スキルを磨くためのリソース\n\nこの記事の内容をさらに深めるために、以下のリソースが役立ちます。\n\n- **[Amazon 統計学書籍](https://www.amazon.co.jp?tag=musclelove07-22)** - 臨床統計・生物統計の参考書\n- **[Udemy SAS/R講座](https://www.udemy.com)** - 動画で学ぶSAS/R統計プログラミング\n- **[楽天 統計書籍](https://www.rakuten.co.jp)** - 統計学・データサイエンスの参考書\n\n*上記リンクからご利用いただくと、サイト運営の支援になります。*\n\n\n## まとめ\nRの`admiral`パッケージは、臨床試験におけるADaMデータセット作成のゲームチェンジャーとなり得るツールです。標準化された関数と`tidyverse`の強力な記法を組み合わせることで、SASに匹敵、あるいはそれ以上の効率と品質でデータ解析基盤を構築できます。\n\nプログラミング効率化は、単にコードを速く書くこと以上の意味を持ちます。それは、より多くの時間をデータの深い洞察や統計的解釈に費やせるようになることを意味します。さらに、AI技術の進化は、この効率化の波をさらに加速させ、将来の臨床統計業務のあり方を大きく変えるでしょう。\n\n私たち臨床統計担当者は、新しい技術への好奇心と探求心を持って、Rや`admiral`、そしてAIといったツールを積極的に学び、日々の業務に取り入れていくことが求められます。日本の臨床試験の発展のために、皆さんと共に学び、成長していけることを楽しみにしています。\n\n**臨床統計ラボ**では、今後もR for Clinical TrialsやAIを活用した効率化に関する情報を提供していきます。ぜひ、他の記事もご覧ください。\n",
  "meta_description": "Rのadmiralパッケージで臨床試験ADaM作成を効率化。SASとのコード比較、AI活用によるプログラミングの未来、海外トレンドをエキスパートが解説。",
  "tags": [
    "admiral",
    "R",
    "臨床試験",
    "プログラミング効率化",
    "ADaM"
  ],
  "slug": "admiral-r-clinical-trials-ai-efficiency",
  "faq": [
    {
      "question": "admiralはSASを完全に置き換えられますか？",
      "answer": "現時点では「完全に」置き換えるというよりは、補完し、代替手段を提供するものと考えるのが適切です。両者を共存させながら、Rの適用範囲を徐々に広げていくのが現実的なアプローチでしょう。"
    },
    {
      "question": "admiralを使うメリットは何ですか？",
      "answer": "主なメリットは、プログラミングの標準化、効率化、再現性の向上です。定型的なADaM変数の導出を迅速かつ正確に行え、コードレビューの負担も軽減されます。"
    },
    {
      "question": "admiralの学習コストは高いですか？",
      "answer": "R言語とtidyverseの基本的な知識があれば、比較的スムーズに学習できます。公式ドキュメントやオンラインのチュートリアルも充実しており、学習リソースは豊富です。"
    },
    {
      "question": "AIはadmiralのプログラミングにどう役立ちますか？",
      "answer": "AI、特に大規模言語モデルは、admiralを用いたRプログラミングの強力なアシスタントとなり得ます。仕様書からのコード自動生成、コードレビューの自動化、エラー診断とデバッグ支援などが期待されます。"
    }
  ],
  "hero_emoji": "📝",
  "hero_gradient": "135deg",
  "keyword": "{admiral}, R for Clinical Trials, AI, プログラミング効率化, 臨床試験データ解析",
  "category": "R for Clinical Trials",
  "generated_at": "2026-04-09T05:07:13.213350",
  "has_affiliate": true,
  "affiliate_count": 3,
  "eyecatch_url": "https://images.unsplash.com/photo-1551288049-bebda4e38f71?w=1200&h=630&fit=crop&auto=format&q=80",
  "eyecatch_credit": "Photo from [Unsplash](https://unsplash.com/)"
}