{
  "title": "R for Clinical Trials: admiralとADaMで臨床試験データ解析を加速",
  "content": "# R for Clinical Trials: admiralとADaMで臨床試験データ解析を加速\n\n![R for Clinical Trials: admiralとADaMで臨床試験データ解析を加速](https://images.unsplash.com/photo-1551288049-bebda4e38f71?w=1200&h=630&fit=crop&auto=format&q=80)\n\n*Photo from [Unsplash](https://unsplash.com/)*\n\n\n## この記事でわかること\n*   `admiral`パッケージ（R for Clinical Trialsの一部）の基本的な使い方\n*   臨床試験におけるADaMデータセット（解析用データセット）作成の効率化手法\n*   `admiral`を使ったRコードによる実践的なADaMデータセット作成と確認\n*   SASコードとの比較と、`admiral`がもたらす品質・再現性の向上\n*   海外の最新動向と`admiral`コミュニティでの議論、AIプログラミングとの連携\n\n## 結論から言うと\n**`admiral`は、Rを使って臨床試験のADaMデータセットを効率的かつ標準的に作成するための強力なパッケージです。** 手作業を大幅に削減し、データ解析の品質と再現性を飛躍的に高めることができます。SASとRの連携を視野に入れつつ、現代の臨床試験プログラミングにおいて必須のスキルとなりつつあります。\n\n## admiralとは？\nこんにちは、臨床統計ラボの管理人です。10年以上にわたり製薬企業やCROで臨床試験の統計解析に携わってきました。今日のテーマは、臨床試験データ解析の現場でいま最も注目されているRパッケージの一つ、`admiral`です。\n\n`admiral`は「**A**nalysis **D**ata **M**odel in **R** (`admiral`)」の略称で、R for Clinical Trialsイニシアチブの一環として開発が進められているオープンソースパッケージです。その主な目的は、**CDISC ADaM（Analysis Data Model: 解析用データモデル）データセットの作成プロセスを標準化し、自動化すること**にあります。\n\nCDISC ADaMデータセットは、臨床試験の統計解析の基盤となる非常に重要なデータセットです。SDTM（Standard Data Tabulation Model: 標準データ提示モデル）から解析に必要な変数を導出し、試験のデザインや解析計画書（SAP: Statistical Analysis Plan）に沿った形で構成されます。しかし、このADaMデータセットの作成は、これまでは各社・各試験で手作業や個別のSASマクロに依存することが多く、品質管理や再現性の確保に大きな課題がありました。\n\n`admiral`は、この課題を解決するために、`tidyverse`のエコシステム上に構築されています。`tidyverse`とは、Rでのデータ操作を直感的かつ効率的に行うための一連のパッケージ群（`dplyr`, `tidyr`, `ggplot2`など）のことです。`admiral`は`tidyverse`の思想を受け継ぎ、関数型のプログラミングアプローチで、透明性が高く、再利用可能なADaM作成コードの記述を可能にします。\n\n### なぜ今、`admiral`が重要なのか？\n1.  **効率性の向上**: ADaMデータセットの作成に必要な定型的な作業を関数として提供することで、プログラミング時間を大幅に短縮します。\n2.  **品質の保証**: 標準化された関数を使用することで、人為的なエラーのリスクを低減し、一貫性のある高品質なデータセット作成を支援します。\n3.  **再現性の確保**: オープンソースであるため、コードの透明性が高く、誰でも同じ結果を再現できます。これは規制当局への提出においても非常に有利です。\n4.  **コミュニティによるサポート**: 活発なコミュニティが存在し、機能の追加やバグ修正が継続的に行われています。疑問点があれば、コミュニティのフォーラムなどで解決策を見つけやすいのも魅力です。\n\n## 統計的背景・理論\n`admiral`の真価を理解するには、まずCDISC ADaMの基本原則を抑えておく必要があります。ADaMは、統計解析の基盤となるデータセットとして、以下の3つの主要原則に基づいています。\n\n1.  **Traceability（トレーサビリティ）**: 解析結果がどのSDTMデータセットのどのデータポイントから導出されたかを明確に追跡できること。これは、規制当局がデータ監査を行う際に非常に重要です。\n2.  **Analysis-ready（解析準備済み）**: データセットが直接解析に利用できる形式であること。つまり、解析者が追加のデータ操作を行う必要がない状態を指します。\n3.  **Standardized（標準化）**: 変数名、値、ロジックなどがCDISCの標準に従っていること。これにより、異なる試験間での比較やデータ共有が容易になります。\n\n`admiral`は、これらの原則をRの関数として実装しています。例えば、SDTMデータセット（例: DM: Demographics, VS: Vital Signs）からADaMの基幹となるADSL（Subject-Level Analysis Dataset: 被験者レベル解析データセット）を作成する際、以下のような変数を導出します。\n\n*   **治療期に関連する日付/日数の変数**: 最終投与日、来院日、治験薬投与開始日からの経過日数（`ADY`: Analysis Day）など。\n    *   `ADY`の計算例: $`ADY = Date - Reference Date`$ （ここで`Reference Date`は治験薬投与開始日など）\n*   **ベースライン値**: 治験薬投与前の測定値。解析で共変量（covariate）として使われることが多いです。\n*   **年齢グループ**: `AGE`変数を基に、解析計画書で定められた年齢カテゴリ（例: `<65`, `65-74`, `$\\ge 75$`歳）を導出します。\n\nこれらの導出ロジックを`admiral`の関数が提供することで、各社が独自に開発していたスクリプトを共通化し、ADaMの品質と作成効率を向上させます。\n\n## SAS/Rコード実装\nそれでは、実際に`admiral`と`rtables`を使ったRコードの例を見ていきましょう。今回は、架空のSDTMデータからADSL（被験者レベル解析データセット）の一部を作成し、簡単な要約表を作成する例を示します。\n\n### Rコード（admiral & rtables）\nまず、必要なパッケージをロードし、ダミーのSDTMデータ（DM, EX, VS, LB）を作成します。実際の臨床試験では、これらのデータはトランスポートファイル（XPT）から読み込まれます。\n\n```R\n# パッケージのロード\nlibrary(tidyverse)\nlibrary(admiral)\nlibrary(rtables)\nlibrary(tern)\n\n# 1. ダミーSDTMデータの作成\n# DM (Demographics) データ\ndm <- tibble::tribble(\n  ~STUDYID, ~USUBJID, ~SITEID, ~SEX,   ~AGE, ~RACE,           ~ARM,            ~ACTARMCD, ~TRT01P,   ~TRT01A,   ~RFSTDTC,   ~RFENDTC,\n  \"STUDY01\", \"001-001\", \"101\",   \"M\",    62,   \"WHITE\",         \"Placebo\",         \"PLC\",     \"Placebo\", \"Placebo\", \"2023-01-01\", \"2023-03-31\",\n  \"STUDY01\", \"001-002\", \"101\",   \"F\",    75,   \"ASIAN\",         \"Drug X 10mg\",     \"DRG10\",   \"Drug X 10mg\", \"Drug X 10mg\", \"2023-01-05\", \"2023-04-04\",\n  \"STUDY01\", \"001-003\", \"102\",   \"M\",    58,   \"BLACK OR AFRICAN AMERICAN\", \"Drug X 20mg\",     \"DRG20\",   \"Drug X 20mg\", \"Drug X 20mg\", \"2023-01-10\", \"2023-04-09\",\n  \"STUDY01\", \"001-004\", \"102\",   \"F\",    68,   \"WHITE\",         \"Placebo\",         \"PLC\",     \"Placebo\", \"Placebo\", \"2023-01-15\", \"2023-04-14\",\n  \"STUDY01\", \"001-005\", \"103\",   \"M\",    71,   \"ASIAN\",         \"Drug X 10mg\",     \"DRG10\",   \"Drug X 10mg\", \"Drug X 10mg\", \"2023-01-20\", \"2023-04-19\",\n  \"STUDY01\", \"001-006\", \"103\",   \"F\",    64,   \"WHITE\",         \"Drug X 20mg\",     \"DRG20\",   \"Drug X 20mg\", \"Drug X 20mg\", \"2023-01-25\", \"2023-04-24\"\n) %>%\n  mutate(\n    RFSTDTC = as.Date(RFSTDTC),\n    RFENDTC = as.Date(RFENDTC)\n  )\n\n# EX (Exposure) データ - 簡略化\nex <- tibble::tribble(\n  ~STUDYID, ~USUBJID, ~EXSTDTC,\n  \"STUDY01\", \"001-001\", \"2023-01-01\",\n  \"STUDY01\", \"001-002\", \"2023-01-05\",\n  \"STUDY01\", \"001-003\", \"2023-01-10\",\n  \"STUDY01\", \"001-004\", \"2023-01-15\",\n  \"STUDY01\", \"001-005\", \"2023-01-20\",\n  \"STUDY01\", \"001-006\", \"2023-01-25\"\n) %>%\n  mutate(EXSTDTC = as.Date(EXSTDTC))\n\n# VS (Vital Signs) データ - 簡略化\nvs <- tibble::tribble(\n  ~STUDYID, ~USUBJID, ~VSTESTCD, ~VSSTRESN, ~VSDTC,\n  \"STUDY01\", \"001-001\", \"WEIGHT\",    75.0,      \"2023-01-01\",\n  \"STUDY01\", \"001-001\", \"WEIGHT\",    74.5,      \"2023-02-01\",\n  \"STUDY01\", \"001-002\", \"WEIGHT\",    60.0,      \"2023-01-05\",\n  \"STUDY01\", \"001-003\", \"WEIGHT\",    80.0,      \"2023-01-10\",\n  \"STUDY01\", \"001-004\", \"WEIGHT\",    65.0,      \"2023-01-15\",\n  \"STUDY01\", \"001-005\", \"WEIGHT\",    70.0,      \"2023-01-20\",\n  \"STUDY01\", \"001-006\", \"WEIGHT\",    62.0,      \"2023-01-25\"\n) %>%\n  mutate(VSDTC = as.Date(VSDTC))\n\n# LB (Laboratory Test) データ - 簡略化\nlb <- tibble::tribble(\n  ~STUDYID, ~USUBJID, ~LBTESTCD, ~LBSTRESN, ~LBNRIND, ~LBDTC,\n  \"STUDY01\", \"001-001\", \"ALT\",       25.0,      \"NORMAL\", \"2023-01-01\",\n  \"STUDY01\", \"001-001\", \"ALT\",       35.0,      \"HIGH\",   \"2023-02-01\",\n  \"STUDY01\", \"001-002\", \"ALT\",       30.0,      \"NORMAL\", \"2023-01-05\",\n  \"STUDY01\", \"001-003\", \"ALT\",       40.0,      \"HIGH\",   \"2023-01-10\",\n  \"STUDY01\", \"001-004\", \"ALT\",       28.0,      \"NORMAL\", \"2023-01-15\",\n  \"STUDY01\", \"001-005\", \"ALT\",       32.0,      \"NORMAL\", \"2023-01-20\",\n  \"STUDY01\", \"001-006\", \"ALT\",       29.0,      \"NORMAL\", \"2023-01-25\"\n) %>%\n  mutate(LBDTC = as.Date(LBDTC))\n\n# 2. ADSLのベースをDMから作成\nadsl <- dm %>%\n  # `TRT01A`, `TRT01P` の値を変換 (必要に応じて)\n  mutate(TRT01A = as.factor(TRT01A), TRT01P = as.factor(TRT01P))\n\n# 3. `admiral`関数で新しい変数を導出\nadsl <- adsl %>%\n  # 年齢グループ (AGEGR1) を導出\n  # `cut_value()` は `admiral` のヘルパー関数で、カテゴリ分けに便利です。\n  derive_var_age_gr(\n    age_var = AGE,\n    new_var = AGEGR1,\n    intervals = c(0, 65, 75),\n    labels = c(\"<65\", \"65-74\", \">75\")\n  ) %>%\n  # 治験薬投与開始日 (TRTSDTM) からの経過日数 (ADY) と週 (AWEEK) を導出\n  # EXデータセットのEXSTDTCを治療開始日として使用\n  derive_vars_study_start_dt(\n    dataset_ex = ex, \n    ex_vars = exprs(EXSTDTC)\n  ) %>%\n  # `derive_vars_dt()` は日付変数から日付、月、年などを導出します。\n  # ADSLの場合、RFSTDTCなどをベースにしても良いですが、ここではEXSTDTCをADaMの治療開始日と見立てます\n  # `derive_vars_dy()` で日数、`derive_vars_week_ext()` で週数を導出\n  derive_vars_dy(\n    dataset = .,\n    reference_date = RFSTDTC, # 基準となる日付\n    source_vars = exprs(RFSTDTC, RFENDTC)\n  ) %>%\n  derive_vars_aday(dataset = .,\n                   date = RFSTDTC, # 基準となる日付\n                   base_date = RFSTDTC, # 解析開始日からの日数計算のベース\n                   new_var = ADY)\n\n# 必要に応じて、他のSDTMデータからの変数マージや導出\n# 例: ベースライン体重 (BMIBL) やベースラインALT異常値 (LBHIGHN)\n# ここでは簡略化のため、VSとLBから最初の測定値をベースラインとみなします。\n# `derive_vars_merged()` は複数のデータセットを結合します。\n# まず、ベースラインのVSとLBを取得します。\nvs_bl <- vs %>%\n  filter(VSTESTCD == \"WEIGHT\") %>%\n  arrange(USUBJID, VSDTC) %>%\n  group_by(USUBJID) %>%\n  slice(1) %>%\n  ungroup() %>%\n  select(USUBJID, VSSTRESN, VSDTC) %>%\n  rename(BMIBL = VSSTRESN, VSDTCL = VSDTC)\n\nlb_bl <- lb %>%\n  filter(LBTESTCD == \"ALT\") %>%\n  arrange(USUBJID, LBDTC) %>%\n  group_by(USUBJID) %>%\n  slice(1) %>%\n  ungroup() %>%\n  select(USUBJID, LBNRIND, LBDTC) %>%\n  rename(ALTBLIND = LBNRIND, LBDTCL = LBDTC)\n\n# ADSLにベースライン情報をマージ\nadsl <- adsl %>%\n  derive_vars_merged(\n    dataset_add = vs_bl,\n    by_vars = exprs(STUDYID, USUBJID),\n    new_vars = exprs(BMIBL, VSDTCL)\n  ) %>%\n  derive_vars_merged(\n    dataset_add = lb_bl,\n    by_vars = exprs(STUDYID, USUBJID),\n    new_vars = exprs(ALTBLIND, LBDTCL)\n  )\n\n# 異常値インジケーターの導出 (例: ベースラインALTがHIGHなら1, それ以外は0)\nadsl <- adsl %>%\n  mutate(LBHIGHN = case_when(ALTBLIND == \"HIGH\" ~ 1, TRUE ~ 0))\n\n# ADSLデータセットの確認\nprint(adsl)\n\n# 4. `rtables`と`tern`を使った人口統計学的な要約表の作成\n# まず、解析用にデータセットを調整\n# ternパッケージの`add_count_fct()`を使って、factorレベルごとのカウントを追加\n# これは後でrtablesで表示するための準備です。\n\n# 例えば、AGEGR1とSEXの分布を治療群ごとに集計する\nlyt <- basic_table() %>%\n  split_cols_by(\"TRT01A\") %>%\n  add_col_totals() %>%\n  analyze(\"AGE\", \n          fns = list(N = ~sum(!is.na(.x)),\n                     Mean = ~mean(.x, na.rm = TRUE),\n                     SD = ~sd(.x, na.rm = TRUE),\n                     Median = ~median(.x, na.rm = TRUE),\n                     Min = ~min(.x, na.rm = TRUE),\n                     Max = ~max(.x, na.rm = TRUE)\n                     ) \n          ) %>%\n  # カテゴリカル変数の集計\n  split_rows_by(\"SEX\", split_fun = add_overall_level(\"All\")) %>%\n  summarize_row_groups()\n\n# テーブルの生成\ntbl <- build_table(lyt, adsl)\n\n# テーブルの表示\ntbl\n```\n\n**コード解説**: \n*   **ステップ1**: `tibble::tribble()` を使って、SDTMのデモグラフィック（`DM`）、投与（`EX`）、バイタルサイン（`VS`）、臨床検査値（`LB`）データセットの簡略版を作成しました。実際の試験では、SAS XPT形式のCDISCデータが入力となります。\n*   **ステップ2**: `dm`データセットを基に、ADSLの初期段階を作成します。\n*   **ステップ3**: `admiral`の主要関数を使って、解析に必要な新しい変数を導出しています。\n    *   `derive_var_age_gr()`: `AGE`変数から年齢グループ`AGEGR1`を定義します。区間とラベルを引数として渡すことで、簡単にカテゴリ化できます。\n    *   `derive_vars_study_start_dt()`: `EX`データセットの投与開始日を抽出し、主たる治療開始日とします。\n    *   `derive_vars_dy()`: リファレンス日付から日数を導出します。\n    *   `derive_vars_aday()`: 解析開始日（`RFSTDTC`）からの経過日数 `ADY` を導出します。\n    *   `derive_vars_merged()`: `VS`や`LB`などの他のSDTMデータセットから、ベースライン情報（例: `BMIBL`や`ALTBLIND`）を`USUBJID`（被験者識別子）をキーとしてマージします。これはADaM作成において非常に一般的な操作です。\n    *   `mutate()` と `case_when()`: `tidyverse`の関数を使い、条件に基づいて新しい変数（例: `LBHIGHN`）を作成します。`admiral`は`tidyverse`とシームレスに連携します。\n*   **ステップ4**: `rtables`パッケージと`tern`パッケージを使用して、作成した`adsl`データセットから人口統計学的な要約表を生成しています。`rtables`は、臨床試験報告書で求められるような複雑なテーブルを柔軟に作成できる点が特徴です。\n\n### SASコード実装（参考）\nSASでも同様のADSL作成は可能ですが、通常は`DATA`ステップや`PROC SQL`、`PROC FORMAT`などを組み合わせて記述します。`admiral`の関数が提供する統一感のあるアプローチとは異なり、より低レベルなデータ操作の組み合わせとなります。\n\n```SAS\n/* 1. ダミーSDTMデータの作成 */\ndata dm;\n  length STUDYID USUBJID SITEID $10 SEX RACE ARM ACTARMCD TRT01P TRT01A $50;\n  informat RFSTDTC RFENDTC yymmdd10.;\n  format RFSTDTC RFENDTC yymmddd10.;\n  input STUDYID USUBJID SITEID SEX AGE RACE $ ARM $ ACTARMCD $ TRT01P $ TRT01A $ RFSTDTC RFENDTC;\n  datalines;\nSTUDY01 001-001 101 M 62 WHITE Placebo PLC Placebo Placebo 2023-01-01 2023-03-31\nSTUDY01 001-002 101 F 75 ASIAN Drug X 10mg DRG10 Drug X 10mg Drug X 10mg 2023-01-05 2023-04-04\nSTUDY01 001-003 102 M 58 BLACK OR AFRICAN AMERICAN Drug X 20mg DRG20 Drug X 20mg Drug X 20mg 2023-01-10 2023-04-09\nSTUDY01 001-004 102 F 68 WHITE Placebo PLC Placebo Placebo 2023-01-15 2023-04-14\nSTUDY01 001-005 103 M 71 ASIAN Drug X 10mg DRG10 Drug X 10mg Drug X 10mg 2023-01-20 2023-04-19\nSTUDY01 001-006 103 F 64 WHITE Drug X 20mg DRG20 Drug X 20mg Drug X 20mg 2023-01-25 2023-04-24\n;\nrun;\n\ndata ex;\n  length STUDYID USUBJID $10;\n  informat EXSTDTC yymmdd10.;\n  format EXSTDTC yymmddd10.;\n  input STUDYID USUBJID EXSTDTC;\n  datalines;\nSTUDY01 001-001 2023-01-01\nSTUDY01 001-002 2023-01-05\nSTUDY01 001-003 2023-01-10\nSTUDY01 001-004 2023-01-15\nSTUDY01 001-005 2023-01-20\nSTUDY01 001-006 2023-01-25\n;\nrun;\n\ndata vs;\n  length STUDYID USUBJID VSTESTCD $10 VSDTC $10;\n  informat VSDTC yymmdd10.;\n  format VSDTC yymmddd10.;\n  input STUDYID USUBJID VSTESTCD $ VSSTRESN VSDTC;\n  datalines;\nSTUDY01 001-001 WEIGHT 75.0 2023-01-01\nSTUDY01 001-001 WEIGHT 74.5 2023-02-01\nSTUDY01 001-002 WEIGHT 60.0 2023-01-05\nSTUDY01 001-003 WEIGHT 80.0 2023-01-10\nSTUDY01 001-004 WEIGHT 65.0 2023-01-15\nSTUDY01 001-005 WEIGHT 70.0 2023-01-20\nSTUDY01 001-006 WEIGHT 62.0 2023-01-25\n;\nrun;\n\ndata lb;\n  length STUDYID USUBJID LBTESTCD LBNRIND $10 LBDTC $10;\n  informat LBDTC yymmdd10.;\n  format LBDTC yymmddd10.;\n  input STUDYID USUBJID LBTESTCD $ LBSTRESN LBNRIND $ LBDTC;\n  datalines;\nSTUDY01 001-001 ALT 25.0 NORMAL 2023-01-01\nSTUDY01 001-001 ALT 35.0 HIGH   2023-02-01\nSTUDY01 001-002 ALT 30.0 NORMAL 2023-01-05\nSTUDY01 001-003 ALT 40.0 HIGH   2023-01-10\nSTUDY01 001-004 ALT 28.0 NORMAL 2023-01-15\nSTUDY01 001-005 ALT 32.0 NORMAL 2023-01-20\nSTUDY01 001-006 ALT 29.0 NORMAL 2023-01-25\n;\nrun;\n\n/* 2. ADSLのベースをDMから作成 */\ndata adsl_sas;\n  set dm;\n  TRTSDTM = EXSTDTC; /* 仮にEXSTDTCを治療開始日とする */\n  format TRTSDTM yymmddd10.;\nrun;\n\n/* 3. 新しい変数の導出 */\n/* 年齢グループ (AGEGR1) を導出 */\nproc format;\n  value agefmt low-<65 = '<65'\n               65-74   = '65-74'\n               75-high = '>75';\nquit;\n\ndata adsl_sas;\n  set adsl_sas;\n  if AGE < 65 then AGEGR1 = '<65';\n  else if AGE >= 65 and AGE <= 74 then AGEGR1 = '65-74';\n  else if AGE > 74 then AGEGR1 = '>75';\n  format AGEGR1 $9.;\n\n  /* 解析開始日からの経過日数 (ADY) を導出 */\n  ADY = RFSTDTC - RFSTDTC; /* この例ではRFSTDTCをベースにしているので常に0。実際は異なるベース日付 */\n\n  /* ベースライン体重 (BMIBL) とALT異常値 (LBHIGHN) をマージ */\n  /* ベースラインVS */\n  proc sort data=vs out=vs_sorted;\n    by USUBJID VSDTC;\n  run;\n  data vs_bl;\n    set vs_sorted;\n    by USUBJID;\n    if first.USUBJID and VSTESTCD = 'WEIGHT';\n    rename VSSTRESN = BMIBL VSDTC = VSDTCL;\n    keep STUDYID USUBJID BMIBL VSDTCL;\n  run;\n\n  /* ベースラインLB */\n  proc sort data=lb out=lb_sorted;\n    by USUBJID LBDTC;\n  run;\n  data lb_bl;\n    set lb_sorted;\n    by USUBJID;\n    if first.USUBJID and LBTESTCD = 'ALT';\n    rename LBNRIND = ALTBLIND LBDTC = LBDTCL;\n    keep STUDYID USUBJID ALTBLIND LBDTCL;\n  run;\n\nproc sql;\n  create table adsl_sas as\n  select\n    t1.*,\n    t2.BMIBL,\n    t2.VSDTCL,\n    t3.ALTBLIND,\n    t3.LBDTCL\n  from adsl_sas t1\n  left join vs_bl t2\n    on t1.USUBJID = t2.USUBJID\n  left join lb_bl t3\n    on t1.USUBJID = t3.USUBJID\n  ;\nquit;\n\ndata adsl_sas;\n  set adsl_sas;\n  /* 異常値インジケーターの導出 */\n  LBHIGHN = (ALTBLIND = 'HIGH'); /* HIGHなら1, それ以外は0 */\nrun;\n\n/* ADSLデータセットの確認 */\nproc print data=adsl_sas(obs=5);\n  var USUBJID AGE AGEGR1 RFSTDTC ADY BMIBL LBHIGHN;\nrun;\n\n/* 4. SASでの要約表の作成例 (PROC FREQ) */\nproc freq data=adsl_sas;\n  tables TRT01A * (SEX AGEGR1);\nrun;\n```\n\n**SASコード解説**: \n*   **ステップ1**: `data`ステップでダミーのSDTMデータを手動で作成しています。\n*   **ステップ2**: `dm`データセットを基に`adsl_sas`の初期段階を作成します。\n*   **ステップ3**: `DATA`ステップと`PROC FORMAT`で`AGEGR1`を導出し、`PROC SQL`と`DATA`ステップで他のデータセットからのマージや異常値インジケーターの導出を行っています。`admiral`の関数とは異なり、各処理が分離しており、コードの可読性や保守性が劣る可能性があります。\n*   **ステップ4**: `PROC FREQ`を使ってカテゴリカル変数の単純な頻度集計を行っています。より複雑な統計表には`PROC REPORT`や`PROC TABULATE`などを使用しますが、その記述はさらに複雑になります。\n\nこれらのコード例から、`admiral`が提供する関数群が、いかに効率的で読みやすいコード記述を可能にするかお分かりいただけるかと思います。特に`derive_var_age_gr()`のような関数は、SASでの`PROC FORMAT`と`if-else`ロジックの組み合わせに相当し、簡潔に記述できます。{{internal_link:SASからRへの移行ガイド}}\n\n## 実務での活用場面\n`admiral`は、臨床試験のデータサイエンスとプログラミングのワークフローにおいて、多岐にわたる場面で活用できます。\n\n*   **ADaMデータセットの初回作成**: 治験の開始時やプロトコル承認後、SDTMデータが利用可能になった段階で、解析計画書に基づいてADaMデータセットを一から作成する際に最も威力を発揮します。\n*   **ADaMデータセットの更新・改訂**: プロトコル改訂や解析計画書の変更により、既存のADaMデータセットに修正が必要になった場合、`admiral`のモジュール化された関数を使用することで、影響範囲を最小限に抑えつつ、効率的に変更を適用できます。\n*   **品質管理（QC）とバリデーション**: `admiral`で作成されたコードは透明性が高く、各変数の導出ロジックが明確なため、データマネジメントや統計部門によるQC（Quality Control: 品質管理）やバリデーション（Validation: 妥当性確認）のプロセスを効率化します。標準化された関数を使用することで、バリデーションの負担も軽減されます。\n*   **トレーサビリティの確保**: `admiral`の関数は、SDTMからADaMへのデータの流れを明確にするように設計されています。これは、規制当局（例: FDA, PMDA）へのデータ提出時に求められるトレーサビリティの要件を満たす上で非常に重要です。\n*   **グローバル標準の導入**: 複数のCROや異なる地域のチームと連携するグローバルスタディにおいて、`admiral`を導入することで、ADaM作成プロセスを統一し、データの一貫性と品質を確保することができます。\n\n## 海外の最新動向\n`admiral`を含むR for Clinical Trialsエコシステムは、海外の主要な統計コミュニティや規制当局でも大きな注目を集めています。\n\n### R for Clinical Trials Working Group\nR Consortiumが主催するR for Clinical Trials Working Groupは、臨床試験でのRの活用を推進するための重要な役割を担っています。PHUSE（Pharmaceutical Users Software Exchange）、CDISC（Clinical Data Interchange Standards Consortium）、FDA（米国食品医薬品局）の専門家も参加し、Rパッケージの開発ガイドラインやバリデーション戦略について議論を重ねています。`admiral`は、このワーキンググループが推奨する標準化されたパッケージ群の筆頭として位置づけられています。\n\n### PSI, ASA, PHUSE, CDISCイベントでの発表\nPSI（Statisticians in the Pharmaceutical Industry）、ASA（American Statistical Association）、PHUSE、CDISCといった国際的なカンファレンスでは、`admiral`や`rtables`、`tern`、`Tplyr`などのClinical Trial用Rパッケージに関する発表が頻繁に行われています。特に、SDTMからADaMへの変換の自動化、解析結果のテーブル・リスト・フィギュア（TLF）作成の効率化、そしてバリデーションプロセスの改善に関する事例発表が増えています。\n\n### AIプログラミングとadmiralの連携\n最近では、ChatGPTやGitHub Copilotのような**AIプログラミング**ツールが注目を集めています。これらのツールは、自然言語での指示に基づいてコードを生成したり、既存のコードを補完したりすることができます。`admiral`のような標準化されたパッケージと組み合わせることで、ADaM作成の初稿コードをAIが生成し、人間がそれをレビュー・修正するというワークフローが現実的になりつつあります。これにより、定型的なコーディング作業の時間がさらに短縮され、プログラマーはより複雑なロジック設計や品質管理に集中できるようになるでしょう。{{internal_link:AI時代の臨床統計プログラミング}}\n\n### 規制当局の動向\nFDAはRを正式な統計解析ソフトウェアとして認める方向にあり、Rで作成された解析結果の提出を積極的に受け入れています。PMDA（医薬品医療機器総合機構）も同様に、オープンソースソフトウェアの活用に前向きな姿勢を示しており、`admiral`のような透明性の高いパッケージは、将来的な規制当局への提出において、より広く受け入れられる可能性を秘めています。\n\n**参考文献・ガイドライン:**\n*   CDISC ADaM Implementation Guide: [https://www.cdisc.org/standards/foundational/adam/adamig](https://www.cdisc.org/standards/foundational/adam/adamig)\n*   R for Clinical Trials Community: [https://www.r-consortium.org/projects/r-task-forces/r-for-clinical-trials-working-group](https://www.r-consortium.org/projects/r-task-forces/r-for-clinical-trials-working-group)\n*   admiral GitHub Repository: [https://github.com/pharmaverse/admiral](https://github.com/pharmaverse/admiral)\n\n## よくある質問（FAQ）\n\n### Q1: `admiral`を使うメリットは何ですか？\n**A1**: `admiral`は、ADaMデータセットの作成プロセスを標準化し、効率性と品質を大幅に向上させます。具体的には、定型的な導出ロジックが関数として提供されるため、プログラミング時間の短縮、人為的エラーの削減、コードの再現性・透明性の確保に貢献します。これにより、データ解析の信頼性が高まります。\n\n### Q2: `admiral`はSASを完全に置き換えるものですか？\n**A2**: 現時点では、`admiral`がSASを完全に置き換えるものではありません。多くの製薬企業やCROでは、依然としてSASが主要なプログラミングツールとして使われています。しかし、`admiral`はSASで課題とされてきたADaM作成の標準化と効率化において強力な代替手段・補完ツールとなり、RとSASの共存・連携が今後の主流となるでしょう。例えば、SDTMデータはSASで作成し、ADaMは`admiral`で作成するといったワークフローも考えられます。\n\n### Q3: `admiral`はADaM以外のデータセット作成にも使えますか？\n**A3**: `admiral`はCDISC ADaMデータセットの作成に特化して設計されています。そのため、他の標準（例: SDTM）や社内独自のデータセットの作成には直接適用できません。ただし、`admiral`が採用している`tidyverse`のデータ操作の考え方や、モジュール化された関数設計は、他のデータセット作成にも応用できる良いプラクティスとなります。\n\n### Q4: `admiral`の学習リソースはどこにありますか？\n**A4**: `admiral`の公式ウェブサイト（[https://pharmaverse.github.io/admiral/](https://pharmaverse.github.io/admiral/)）には、詳細なドキュメント、チュートリアル、利用例が豊富に用意されています。また、GitHubリポジトリにはソースコードとIssueトラッカーがあり、コミュニティのメーリングリストやR for Clinical Trials Working Groupの活動も活発です。これらのリソースを活用することで、効率的に学習を進めることができます。\n\n### Q5: AIプログラミングとadmiralの連携は可能ですか？\n**A5**: はい、非常に有望な連携です。ChatGPTやGitHub CopilotなどのAIプログラミングツールは、自然言語での指示に基づいて`admiral`のコードの初稿を生成したり、コード補完を支援したりすることができます。これにより、定型的なコーディング作業の負荷を軽減し、プログラマーはより複雑なロジック設計や品質管理に注力できるようになります。将来的には、AIが解析計画書から直接ADaMコードを生成するような高度な連携も期待されます。\n\n## 臨床統計スキルを磨くためのリソース\n\nこの記事の内容をさらに深めるために、以下のリソースが役立ちます。\n\n- **[Amazon 統計学書籍](https://www.amazon.co.jp?tag=musclelove07-22)** - 臨床統計・生物統計の参考書\n- **[Udemy SAS/R講座](https://www.udemy.com)** - 動画で学ぶSAS/R統計プログラミング\n- **[楽天 統計書籍](https://www.rakuten.co.jp)** - 統計学・データサイエンスの参考書\n\n*上記リンクからご利用いただくと、サイト運営の支援になります。*\n\n\n## まとめ\nこの記事では、R for Clinical Trialsの中核をなす`admiral`パッケージについて、その概要から統計的背景、そして実践的なRおよびSASコード例を交えて詳しく解説しました。\n\n`admiral`は、CDISC ADaMデータセット作成の**効率性**、**品質**、**再現性**を飛躍的に向上させるための革新的なツールです。Rと`tidyverse`のエコシステムを活用することで、従来のSASベースのプログラミングに比べて、より透明性が高く、保守しやすいコードの記述が可能になります。また、`rtables`や`tern`といった関連パッケージとの連携により、解析結果の表作成までを一貫してRで完結させることも夢ではありません。\n\n海外の最新動向を見ても、R for Clinical Trialsの動きは加速しており、AIプログラミングとの連携によって、その可能性はさらに広がっています。日本の臨床統計プログラミングの現場でも、`admiral`のようなツールを積極的に導入し、国際的な標準に追いつき、さらにはリードしていくことが求められています。\n\nぜひこの機会に`admiral`に触れてみて、あなたの臨床試験プログラミングワークフローを次世代へと進化させてみてください。{{internal_link:次世代臨床統計プログラミング}}",
  "meta_description": "Rのadmiralパッケージを活用し、臨床試験のADaMデータセット作成を効率化する方法を解説。実践的なコード例と最新動向で、臨床統計プログラミングを加速させましょう。",
  "tags": [
    "admiral",
    "Rプログラミング",
    "臨床試験",
    "ADaM",
    "データ解析"
  ],
  "slug": "r-clinical-trials-admiral-adam",
  "faq": [
    {
      "question": "admiralを使うメリットは何ですか？",
      "answer": "admiralは、ADaMデータセットの作成プロセスを標準化し、効率性と品質を大幅に向上させます。プログラミング時間の短縮、人為的エラーの削減、コードの再現性・透明性の確保に貢献し、データ解析の信頼性を高めます。"
    },
    {
      "question": "admiralはSASを完全に置き換えるものですか？",
      "answer": "現時点では、admiralがSASを完全に置き換えるものではありません。しかし、SASで課題とされてきたADaM作成の標準化と効率化において強力な代替手段・補完ツールとなり、RとSASの共存・連携が今後の主流となるでしょう。"
    },
    {
      "question": "admiralはADaM以外のデータセット作成にも使えますか？",
      "answer": "admiralはCDISC ADaMデータセットの作成に特化して設計されています。そのため、他の標準（例: SDTM）や社内独自のデータセットの作成には直接適用できません。"
    },
    {
      "question": "admiralの学習リソースはどこにありますか？",
      "answer": "admiralの公式ウェブサイト（https://pharmaverse.github.io/admiral/）には、詳細なドキュメント、チュートリアル、利用例が豊富に用意されています。GitHubリポジトリやコミュニティのメーリングリストも活用できます。"
    },
    {
      "question": "AIプログラミングとadmiralの連携は可能ですか？",
      "answer": "はい、非常に有望な連携です。ChatGPTやGitHub CopilotなどのAIプログラミングツールは、自然言語での指示に基づいてadmiralのコードの初稿を生成したり、コード補完を支援したりすることができます。これにより、定型的なコーディング作業の負荷を軽減し、プログラマーはより複雑なロジック設計や品質管理に注力できるようになります。将来的には、AIが解析計画書から直接ADaMコードを生成するような高度な連携も期待されます。"
    }
  ],
  "hero_emoji": "📝",
  "hero_gradient": "135deg",
  "keyword": "{admiral}, R for Clinical Trials, 臨床試験, ADaM, AIプログラミング",
  "category": "R for Clinical Trials",
  "generated_at": "2026-04-05T05:09:37.780756",
  "has_affiliate": true,
  "affiliate_count": 3,
  "eyecatch_url": "https://images.unsplash.com/photo-1551288049-bebda4e38f71?w=1200&h=630&fit=crop&auto=format&q=80",
  "eyecatch_credit": "Photo from [Unsplash](https://unsplash.com/)"
}